posx,w,amount,posx1,posx2,center_to_center,edge_to_edge,eccentricity,setsize_cobdi,first.thisRepN,first.thisTrialN,first.thisN,first.thisIndex,second.thisRepN,second.thisTrialN,second.thisN,second.thisIndex,text_2.started,text_2.stopped,key_resp_2.keys,key_resp_2.rt,starting_width_deg,response_width_degree,response_width_pixel,adjusting.started,adjusting.stopped,next.keys,next.rt,text_3.started,text_3.stopped,key_resp_3.keys,key_resp_3.rt,key_resp.keys,key_resp.corr,key_resp.rt,key_resp.started,key_resp.stopped,participant,age,gender,date,expName,psychopyVersion,frameRate,
,,,,,,,,,,,,,,,,,11.04535850000002,None,c,18.573217499999828,,,,,,,,,,,,,,,,,13,21,female,2023_Oct_10_1412,control,2021.2.3,59.92670963421383,
10,0.4,,,,,,,,0,0,0,2,,,,,,,,,0.2,0.2,6.79209,31.824558800000432,None,return,8.449651500000073,,,,,,,,,,13,21,female,2023_Oct_10_1412,control,2021.2.3,59.92670963421383,
10,0.25,,,,,,,,0,1,1,1,,,,,,,,,0.45,0.20000000000000007,6.79209,41.44131400000015,None,return,2.4489478999998937,,,,,,,,,,13,21,female,2023_Oct_10_1412,control,2021.2.3,59.92670963421383,
10,0.1,,,,,,,,0,2,2,0,,,,,,,,,0.2,0.05000000000000002,1.69802,46.057968900000105,None,return,2.3921721000001526,,,,,,,,,,13,21,female,2023_Oct_10_1412,control,2021.2.3,59.92670963421383,
10,0.25,,,,,,,,1,0,3,1,,,,,,,,,0.35,0.2,6.79209,50.12457680000034,None,return,1.7338411000000633,,,,,,,,,,13,21,female,2023_Oct_10_1412,control,2021.2.3,59.92670963421383,
10,0.1,,,,,,,,1,1,4,0,,,,,,,,,0.4,0.10000000000000007,3.39604,53.77462520000017,None,return,2.051463600000261,,,,,,,,,,13,21,female,2023_Oct_10_1412,control,2021.2.3,59.92670963421383,
10,0.4,,,,,,,,1,2,5,2,,,,,,,,,0.1,0.39999999999999997,13.58418,57.991320500000256,None,return,2.6672029999999722,,,,,,,,,,13,21,female,2023_Oct_10_1412,control,2021.2.3,59.92670963421383,
10,0.1,,,,,,,,2,0,6,0,,,,,,,,,0.1,0.25,8.49011,62.074637200000325,None,return,4.2475972000002,,,,,,,,,,13,21,female,2023_Oct_10_1412,control,2021.2.3,59.92670963421383,
10,0.25,,,,,,,,2,1,7,1,,,,,,,,,0.3,0.39999999999999997,13.58418,67.99126950000027,None,return,1.1309485000001587,,,,,,,,,,13,21,female,2023_Oct_10_1412,control,2021.2.3,59.92670963421383,
10,0.4,,,,,,,,2,2,8,2,,,,,,,,,0.1,0.49999999999999994,16.98022,70.29118170000038,None,return,2.479124099999808,,,,,,,,,,13,21,female,2023_Oct_10_1412,control,2021.2.3,59.92670963421383,
10,0.4,,,,,,,,3,0,9,2,,,,,,,,,0.3,0.44999999999999996,15.2822,74.44126230000029,None,return,1.4174143999998705,,,,,,,,,,13,21,female,2023_Oct_10_1412,control,2021.2.3,59.92670963421383,
10,0.1,,,,,,,,3,1,10,0,,,,,,,,,0.2,0.35,11.88616,77.02460390000033,None,return,2.00151249999999,,,,,,,,,,13,21,female,2023_Oct_10_1412,control,2021.2.3,59.92670963421383,
10,0.25,,,,,,,,3,2,11,1,,,,,,,,,0.35,0.2,6.79209,80.69118300000036,None,return,1.6790814000000864,,,,,,,,,,13,21,female,2023_Oct_10_1412,control,2021.2.3,59.92670963421383,
10,0.1,,,,,,,,4,0,12,0,,,,,,,,,0.15,0.25,8.49011,84.29124330000013,None,return,1.3109747000003154,,,,,,,,,,13,21,female,2023_Oct_10_1412,control,2021.2.3,59.92670963421383,
10,0.25,,,,,,,,4,1,13,1,,,,,,,,,0.25,0.3,10.18813,87.52440540000043,None,return,1.3258171000002221,,,,,,,,,,13,21,female,2023_Oct_10_1412,control,2021.2.3,59.92670963421383,
10,0.4,,,,,,,,4,2,14,2,,,,,,,,,0.25,0.39999999999999997,13.58418,90.02457620000041,None,return,1.401456699999926,,,,,,,,,,13,21,female,2023_Oct_10_1412,control,2021.2.3,59.92670963421383,
10,0.4,,,,,,,,5,0,15,2,,,,,,,,,0.2,0.35,11.88616,92.84124380000003,None,return,1.7048190999998951,,,,,,,,,,13,21,female,2023_Oct_10_1412,control,2021.2.3,59.92670963421383,
10,0.25,,,,,,,,5,1,16,1,,,,,,,,,0.45,0.30000000000000004,10.18813,96.7245697000003,None,return,1.405344199999945,,,,,,,,,,13,21,female,2023_Oct_10_1412,control,2021.2.3,59.92670963421383,
10,0.1,,,,,,,,5,2,17,0,,,,,,,,,0.35,0.10000000000000002,3.39604,99.80791760000011,None,return,1.5701269999999568,,,,,,,,,,13,21,female,2023_Oct_10_1412,control,2021.2.3,59.92670963421383,
,,,,,,,,,,,,,,,,,,,,,,,,,,,,101.40788330000032,None,c,18.35438129999966,,,,,,13,21,female,2023_Oct_10_1412,control,2021.2.3,59.92670963421383,
,0.25,1,11.35,99999,0.31,0.06,11.35,4,,,,,0,0,0,8,,,,,,,,,,,,,,,,num_1,0,0.49260780000031446,121.95795420000013,None,13,21,female,2023_Oct_10_1412,control,2021.2.3,59.92670963421383,
,0.1,1,11.8,99999,0.2,0.1,11.8,5,,,,,0,1,1,4,,,,,,,,,,,,,,,,num_1,0,0.5497906000000512,124.12454080000043,None,13,21,female,2023_Oct_10_1412,control,2021.2.3,59.92670963421383,
,0.25,1,11.8,99999,0.35,0.1,11.8,3,,,,,0,2,2,6,,,,,,,,,,,,,,,,num_1,0,0.9033018000000084,126.09099900000001,None,13,21,female,2023_Oct_10_1412,control,2021.2.3,59.92670963421383,
,0.25,2,11.450000000000001,12.15,0.35,0.1,11.8,3,,,,,0,3,3,7,,,,,,,,,,,,,,,,num_2,0,0.44883359999994354,128.6742938000002,None,13,21,female,2023_Oct_10_1412,control,2021.2.3,59.92670963421383,
,0.1,1,11.35,99999,0.16,0.06,11.35,4,,,,,0,4,4,2,,,,,,,,,,,,,,,,num_1,0,0.5114303000000291,130.29122350000034,None,13,21,female,2023_Oct_10_1412,control,2021.2.3,59.92670963421383,
,0.25,1,11.8,99999,0.35,0.1,11.8,5,,,,,0,5,5,10,,,,,,,,,,,,,,,,num_1,0,0.4283116000001428,131.97427880000032,None,13,21,female,2023_Oct_10_1412,control,2021.2.3,59.92670963421383,
,0.1,2,11.600000000000001,12,0.2,0.1,11.8,5,,,,,0,6,6,5,,,,,,,,,,,,,,,,num_2,0,0.674133299999994,133.82439410000006,None,13,21,female,2023_Oct_10_1412,control,2021.2.3,59.92670963421383,
,0.4,2,10.889999999999999,11.81,0.46,0.06,11.35,4,,,,,0,7,7,15,,,,,,,,,,,,,,,,num_2,0,0.5162531000000854,136.17421730000024,None,13,21,female,2023_Oct_10_1412,control,2021.2.3,59.92670963421383,
,0.25,2,11.450000000000001,12.15,0.35,0.1,11.8,5,,,,,0,8,8,11,,,,,,,,,,,,,,,,num_2,0,0.4029347000000598,138.60767430000033,None,13,21,female,2023_Oct_10_1412,control,2021.2.3,59.92670963421383,
,0.4,2,11.3,12.3,0.5,0.1,11.8,5,,,,,0,9,9,17,,,,,,,,,,,,,,,,num_2,0,0.46769529999983206,140.1911441000002,None,13,21,female,2023_Oct_10_1412,control,2021.2.3,59.92670963421383,
,0.4,1,11.35,99999,0.46,0.06,11.35,4,,,,,0,10,10,14,,,,,,,,,,,,,,,,num_1,0,0.5034660000001168,142.09113510000043,None,13,21,female,2023_Oct_10_1412,control,2021.2.3,59.92670963421383,
,0.1,2,11.600000000000001,12,0.2,0.1,11.8,3,,,,,0,11,11,1,,,,,,,,,,,,,,,,num_2,0,0.586080299999594,144.02437670000018,None,13,21,female,2023_Oct_10_1412,control,2021.2.3,59.92670963421383,
,0.1,1,11.8,99999,0.2,0.1,11.8,3,,,,,0,12,12,0,,,,,,,,,,,,,,,,num_1,0,0.6493602000000465,146.04107150000027,None,13,21,female,2023_Oct_10_1412,control,2021.2.3,59.92670963421383,
,0.25,2,11.04,11.66,0.31,0.06,11.35,4,,,,,0,13,13,9,,,,,,,,,,,,,,,,num_2,0,0.514736499999799,148.60773880000033,None,13,21,female,2023_Oct_10_1412,control,2021.2.3,59.92670963421383,
,0.4,1,11.8,99999,0.5,0.1,11.8,3,,,,,0,14,14,12,,,,,,,,,,,,,,,,num_1,0,0.577368999999635,151.04108220000035,None,13,21,female,2023_Oct_10_1412,control,2021.2.3,59.92670963421383,
,0.4,1,11.8,99999,0.5,0.1,11.8,5,,,,,0,15,15,16,,,,,,,,,,,,,,,,num_1,0,0.47776680000015403,153.54102440000042,None,13,21,female,2023_Oct_10_1412,control,2021.2.3,59.92670963421383,
,0.4,2,11.3,12.3,0.5,0.1,11.8,3,,,,,0,16,16,13,,,,,,,,,,,,,,,,num_2,0,0.6632246999997733,155.69114160000026,None,13,21,female,2023_Oct_10_1412,control,2021.2.3,59.92670963421383,
,0.1,2,11.19,11.51,0.16,0.06,11.35,4,,,,,0,17,17,3,,,,,,,,,,,,,,,,num_2,0,0.653932000000168,157.52438080000002,None,13,21,female,2023_Oct_10_1412,control,2021.2.3,59.92670963421383,
,0.25,1,11.8,99999,0.35,0.1,11.8,3,,,,,1,0,18,6,,,,,,,,,,,,,,,,num_1,0,0.6349989000000278,159.60773400000016,None,13,21,female,2023_Oct_10_1412,control,2021.2.3,59.92670963421383,
,0.4,2,10.889999999999999,11.81,0.46,0.06,11.35,4,,,,,1,1,19,15,,,,,,,,,,,,,,,,num_2,0,0.7442403000000013,161.6743848000001,None,13,21,female,2023_Oct_10_1412,control,2021.2.3,59.92670963421383,
,0.1,2,11.600000000000001,12,0.2,0.1,11.8,3,,,,,1,2,20,1,,,,,,,,,,,,,,,,num_2,0,0.4353625999997348,164.5909432000003,None,13,21,female,2023_Oct_10_1412,control,2021.2.3,59.92670963421383,
,0.1,2,11.19,11.51,0.16,0.06,11.35,4,,,,,1,3,21,3,,,,,,,,,,,,,,,,num_2,0,0.3608415000003333,166.4577089000004,None,13,21,female,2023_Oct_10_1412,control,2021.2.3,59.92670963421383,
,0.25,1,11.35,99999,0.31,0.06,11.35,4,,,,,1,4,22,8,,,,,,,,,,,,,,,,num_1,0,0.4493419000000358,168.24115210000036,None,13,21,female,2023_Oct_10_1412,control,2021.2.3,59.92670963421383,
,0.4,1,11.8,99999,0.5,0.1,11.8,5,,,,,1,5,23,16,,,,,,,,,,,,,,,,num_1,0,0.49273719999973764,170.3577620000001,None,13,21,female,2023_Oct_10_1412,control,2021.2.3,59.92670963421383,
,0.4,2,11.3,12.3,0.5,0.1,11.8,5,,,,,1,6,24,17,,,,,,,,,,,,,,,,num_2,0,0.4439674999998715,172.77454930000022,None,13,21,female,2023_Oct_10_1412,control,2021.2.3,59.92670963421383,
,0.1,1,11.8,99999,0.2,0.1,11.8,3,,,,,1,7,25,0,,,,,,,,,,,,,,,,num_2,0,0.6995077000001402,174.39096140000038,None,13,21,female,2023_Oct_10_1412,control,2021.2.3,59.92670963421383,
,0.25,2,11.450000000000001,12.15,0.35,0.1,11.8,5,,,,,1,8,26,11,,,,,,,,,,,,,,,,num_2,0,0.5027734999998756,176.50762590000022,None,13,21,female,2023_Oct_10_1412,control,2021.2.3,59.92670963421383,
,0.1,1,11.8,99999,0.2,0.1,11.8,5,,,,,1,9,27,4,,,,,,,,,,,,,,,,num_1,0,0.4253710000002684,178.44100930000013,None,13,21,female,2023_Oct_10_1412,control,2021.2.3,59.92670963421383,
,0.4,2,11.3,12.3,0.5,0.1,11.8,3,,,,,1,10,28,13,,,,,,,,,,,,,,,,num_2,0,0.3413156000001436,180.5411223000001,None,13,21,female,2023_Oct_10_1412,control,2021.2.3,59.92670963421383,
,0.25,1,11.8,99999,0.35,0.1,11.8,5,,,,,1,11,29,10,,,,,,,,,,,,,,,,num_1,0,0.4411480000003394,182.05782210000007,None,13,21,female,2023_Oct_10_1412,control,2021.2.3,59.92670963421383,
,0.1,1,11.35,99999,0.16,0.06,11.35,4,,,,,1,12,30,2,,,,,,,,,,,,,,,,num_1,0,0.34618399999999383,184.42435670000032,None,13,21,female,2023_Oct_10_1412,control,2021.2.3,59.92670963421383,
,0.4,1,11.8,99999,0.5,0.1,11.8,3,,,,,1,13,31,12,,,,,,,,,,,,,,,,num_1,0,0.3353196000002754,186.69100320000007,None,13,21,female,2023_Oct_10_1412,control,2021.2.3,59.92670963421383,
,0.4,1,11.35,99999,0.46,0.06,11.35,4,,,,,1,14,32,14,,,,,,,,,,,,,,,,num_1,0,0.7086427000003823,188.9578005000003,None,13,21,female,2023_Oct_10_1412,control,2021.2.3,59.92670963421383,
,0.1,2,11.600000000000001,12,0.2,0.1,11.8,5,,,,,1,15,33,5,,,,,,,,,,,,,,,,num_1,0,0.40554589999965174,191.34090200000037,None,13,21,female,2023_Oct_10_1412,control,2021.2.3,59.92670963421383,
,0.25,2,11.04,11.66,0.31,0.06,11.35,4,,,,,1,16,34,9,,,,,,,,,,,,,,,,num_2,0,0.33198529999981474,193.17421330000025,None,13,21,female,2023_Oct_10_1412,control,2021.2.3,59.92670963421383,
,0.25,2,11.450000000000001,12.15,0.35,0.1,11.8,3,,,,,1,17,35,7,,,,,,,,,,,,,,,,num_2,0,0.5018551000002844,194.92440160000024,None,13,21,female,2023_Oct_10_1412,control,2021.2.3,59.92670963421383,
,0.25,1,11.8,99999,0.35,0.1,11.8,5,,,,,2,0,36,10,,,,,,,,,,,,,,,,num_1,0,0.48864099999991595,196.8577978000003,None,13,21,female,2023_Oct_10_1412,control,2021.2.3,59.92670963421383,
,0.4,1,11.35,99999,0.46,0.06,11.35,4,,,,,2,1,37,14,,,,,,,,,,,,,,,,num_1,0,0.47830149999981586,199.52417520000017,None,13,21,female,2023_Oct_10_1412,control,2021.2.3,59.92670963421383,
,0.25,2,11.04,11.66,0.31,0.06,11.35,4,,,,,2,2,38,9,,,,,,,,,,,,,,,,num_2,0,0.3381029000001945,201.42429470000025,None,13,21,female,2023_Oct_10_1412,control,2021.2.3,59.92670963421383,
,0.25,2,11.450000000000001,12.15,0.35,0.1,11.8,5,,,,,2,3,39,11,,,,,,,,,,,,,,,,num_2,0,0.6094241999999213,203.4409882,None,13,21,female,2023_Oct_10_1412,control,2021.2.3,59.92670963421383,
,0.4,1,11.8,99999,0.5,0.1,11.8,5,,,,,2,4,40,16,,,,,,,,,,,,,,,,num_1,0,0.6262534000002233,206.2242814000001,None,13,21,female,2023_Oct_10_1412,control,2021.2.3,59.92670963421383,
,0.1,1,11.8,99999,0.2,0.1,11.8,3,,,,,2,5,41,0,,,,,,,,,,,,,,,,num_1,0,0.6518177999996624,208.77441690000023,None,13,21,female,2023_Oct_10_1412,control,2021.2.3,59.92670963421383,
,0.25,2,11.450000000000001,12.15,0.35,0.1,11.8,3,,,,,2,6,42,7,,,,,,,,,,,,,,,,num_1,0,0.9268575999999484,211.10752309999998,None,13,21,female,2023_Oct_10_1412,control,2021.2.3,59.92670963421383,
,0.1,1,11.35,99999,0.16,0.06,11.35,4,,,,,2,7,43,2,,,,,,,,,,,,,,,,num_1,0,0.5405688000000737,213.95776270000033,None,13,21,female,2023_Oct_10_1412,control,2021.2.3,59.92670963421383,
,0.1,2,11.19,11.51,0.16,0.06,11.35,4,,,,,2,8,44,3,,,,,,,,,,,,,,,,num_2,0,0.8317692000000534,216.6744079,None,13,21,female,2023_Oct_10_1412,control,2021.2.3,59.92670963421383,
,0.4,1,11.8,99999,0.5,0.1,11.8,3,,,,,2,9,45,12,,,,,,,,,,,,,,,,num_1,0,1.2659742000000733,219.42442210000036,None,13,21,female,2023_Oct_10_1412,control,2021.2.3,59.92670963421383,
,0.4,2,11.3,12.3,0.5,0.1,11.8,5,,,,,2,10,46,17,,,,,,,,,,,,,,,,num_2,0,0.5727227000002131,222.3576648000003,None,13,21,female,2023_Oct_10_1412,control,2021.2.3,59.92670963421383,
,0.1,1,11.8,99999,0.2,0.1,11.8,5,,,,,2,11,47,4,,,,,,,,,,,,,,,,num_1,0,0.5088058999999703,224.35763220000035,None,13,21,female,2023_Oct_10_1412,control,2021.2.3,59.92670963421383,
,0.25,1,11.35,99999,0.31,0.06,11.35,4,,,,,2,12,48,8,,,,,,,,,,,,,,,,num_1,0,1.0334023999998863,226.04086770000004,None,13,21,female,2023_Oct_10_1412,control,2021.2.3,59.92670963421383,
,0.4,2,11.3,12.3,0.5,0.1,11.8,3,,,,,2,13,49,13,,,,,,,,,,,,,,,,num_2,0,0.9674071999997977,228.49102080000011,None,13,21,female,2023_Oct_10_1412,control,2021.2.3,59.92670963421383,
,0.1,2,11.600000000000001,12,0.2,0.1,11.8,5,,,,,2,14,50,5,,,,,,,,,,,,,,,,num_2,0,1.1782004000001507,231.62440570000035,None,13,21,female,2023_Oct_10_1412,control,2021.2.3,59.92670963421383,
,0.4,2,10.889999999999999,11.81,0.46,0.06,11.35,4,,,,,2,15,51,15,,,,,,,,,,,,,,,,num_2,0,0.47625220000008994,233.97424360000014,None,13,21,female,2023_Oct_10_1412,control,2021.2.3,59.92670963421383,
,0.1,2,11.600000000000001,12,0.2,0.1,11.8,3,,,,,2,16,52,1,,,,,,,,,,,,,,,,num_2,0,0.5238572000002932,236.37438660000043,None,13,21,female,2023_Oct_10_1412,control,2021.2.3,59.92670963421383,
,0.25,1,11.8,99999,0.35,0.1,11.8,3,,,,,2,17,53,6,,,,,,,,,,,,,,,,num_1,0,0.35208369999963907,239.07406570000012,None,13,21,female,2023_Oct_10_1412,control,2021.2.3,59.92670963421383,
,0.25,2,11.450000000000001,12.15,0.35,0.1,11.8,5,,,,,3,0,54,11,,,,,,,,,,,,,,,,num_2,0,0.2928781999999046,241.35751400000026,None,13,21,female,2023_Oct_10_1412,control,2021.2.3,59.92670963421383,
,0.4,1,11.8,99999,0.5,0.1,11.8,5,,,,,3,1,55,16,,,,,,,,,,,,,,,,num_1,0,0.5441771000000699,243.07431050000014,None,13,21,female,2023_Oct_10_1412,control,2021.2.3,59.92670963421383,
,0.25,2,11.04,11.66,0.31,0.06,11.35,4,,,,,3,2,56,9,,,,,,,,,,,,,,,,num_2,0,0.2754079000001184,245.7910299,None,13,21,female,2023_Oct_10_1412,control,2021.2.3,59.92670963421383,
,0.1,1,11.8,99999,0.2,0.1,11.8,3,,,,,3,3,57,0,,,,,,,,,,,,,,,,num_1,0,0.29736370000000534,247.24104160000024,None,13,21,female,2023_Oct_10_1412,control,2021.2.3,59.92670963421383,
,0.4,1,11.8,99999,0.5,0.1,11.8,3,,,,,3,4,58,12,,,,,,,,,,,,,,,,num_2,0,0.17095689999996466,249.20749540000043,None,13,21,female,2023_Oct_10_1412,control,2021.2.3,59.92670963421383,
,0.25,1,11.8,99999,0.35,0.1,11.8,5,,,,,3,5,59,10,,,,,,,,,,,,,,,,num_1,0,0.4808118999999351,251.05768390000003,None,13,21,female,2023_Oct_10_1412,control,2021.2.3,59.92670963421383,
,0.1,2,11.19,11.51,0.16,0.06,11.35,4,,,,,3,6,60,3,,,,,,,,,,,,,,,,num_2,0,1.0187151000000085,253.20760520000022,None,13,21,female,2023_Oct_10_1412,control,2021.2.3,59.92670963421383,
,0.4,2,11.3,12.3,0.5,0.1,11.8,5,,,,,3,7,61,17,,,,,,,,,,,,,,,,num_2,0,0.5808312999997725,256.1576500000001,None,13,21,female,2023_Oct_10_1412,control,2021.2.3,59.92670963421383,
,0.25,1,11.8,99999,0.35,0.1,11.8,3,,,,,3,8,62,6,,,,,,,,,,,,,,,,num_1,0,0.37278340000011667,258.15757900000017,None,13,21,female,2023_Oct_10_1412,control,2021.2.3,59.92670963421383,
,0.1,1,11.8,99999,0.2,0.1,11.8,5,,,,,3,9,63,4,,,,,,,,,,,,,,,,num_2,0,0.17487500000015643,260.70758560000013,None,13,21,female,2023_Oct_10_1412,control,2021.2.3,59.92670963421383,
,0.4,1,11.35,99999,0.46,0.06,11.35,4,,,,,3,10,64,14,,,,,,,,,,,,,,,,num_1,0,0.40920450000021447,262.05773720000025,None,13,21,female,2023_Oct_10_1412,control,2021.2.3,59.92670963421383,
,0.25,2,11.450000000000001,12.15,0.35,0.1,11.8,3,,,,,3,11,65,7,,,,,,,,,,,,,,,,num_2,0,0.399304900000061,263.8909675,None,13,21,female,2023_Oct_10_1412,control,2021.2.3,59.92670963421383,
,0.1,2,11.600000000000001,12,0.2,0.1,11.8,3,,,,,3,12,66,1,,,,,,,,,,,,,,,,num_2,0,0.3748496000002888,265.7075934000004,None,13,21,female,2023_Oct_10_1412,control,2021.2.3,59.92670963421383,
,0.25,1,11.35,99999,0.31,0.06,11.35,4,,,,,3,13,67,8,,,,,,,,,,,,,,,,num_1,0,0.31507640000018,268.00742860000037,None,13,21,female,2023_Oct_10_1412,control,2021.2.3,59.92670963421383,
,0.4,2,11.3,12.3,0.5,0.1,11.8,3,,,,,3,14,68,13,,,,,,,,,,,,,,,,num_2,0,0.38316789999998946,269.49099810000007,None,13,21,female,2023_Oct_10_1412,control,2021.2.3,59.92670963421383,
,0.4,2,10.889999999999999,11.81,0.46,0.06,11.35,4,,,,,3,15,69,15,,,,,,,,,,,,,,,,num_1,0,0.1992249999998421,271.2910112000004,None,13,21,female,2023_Oct_10_1412,control,2021.2.3,59.92670963421383,
,0.1,2,11.600000000000001,12,0.2,0.1,11.8,5,,,,,3,16,70,5,,,,,,,,,,,,,,,,num_2,0,0.31656139999995503,273.1576175,None,13,21,female,2023_Oct_10_1412,control,2021.2.3,59.92670963421383,
,0.1,1,11.35,99999,0.16,0.06,11.35,4,,,,,3,17,71,2,,,,,,,,,,,,,,,,num_2,0,0.22730690000025788,275.3910068,None,13,21,female,2023_Oct_10_1412,control,2021.2.3,59.92670963421383,
,0.25,1,11.8,99999,0.35,0.1,11.8,5,,,,,4,0,72,10,,,,,,,,,,,,,,,,num_1,0,0.3694307000000663,277.0408778000001,None,13,21,female,2023_Oct_10_1412,control,2021.2.3,59.92670963421383,
,0.4,2,11.3,12.3,0.5,0.1,11.8,5,,,,,4,1,73,17,,,,,,,,,,,,,,,,num_2,0,0.4795407999999952,279.09089280000035,None,13,21,female,2023_Oct_10_1412,control,2021.2.3,59.92670963421383,
,0.1,1,11.8,99999,0.2,0.1,11.8,5,,,,,4,2,74,4,,,,,,,,,,,,,,,,num_1,0,0.5535319999999047,281.2408542000003,None,13,21,female,2023_Oct_10_1412,control,2021.2.3,59.92670963421383,
,0.25,2,11.450000000000001,12.15,0.35,0.1,11.8,5,,,,,4,3,75,11,,,,,,,,,,,,,,,,num_1,0,0.2682386999999835,283.9742692,None,13,21,female,2023_Oct_10_1412,control,2021.2.3,59.92670963421383,
,0.25,2,11.450000000000001,12.15,0.35,0.1,11.8,3,,,,,4,4,76,7,,,,,,,,,,,,,,,,num_2,0,0.4662158000001,285.42412000000013,None,13,21,female,2023_Oct_10_1412,control,2021.2.3,59.92670963421383,
,0.4,2,11.3,12.3,0.5,0.1,11.8,3,,,,,4,5,77,13,,,,,,,,,,,,,,,,num_2,0,0.6366797999999108,287.5575494000004,None,13,21,female,2023_Oct_10_1412,control,2021.2.3,59.92670963421383,
,0.1,2,11.600000000000001,12,0.2,0.1,11.8,3,,,,,4,6,78,1,,,,,,,,,,,,,,,,num_2,0,0.6359998000002633,290.3743101,None,13,21,female,2023_Oct_10_1412,control,2021.2.3,59.92670963421383,
,0.1,2,11.19,11.51,0.16,0.06,11.35,4,,,,,4,7,79,3,,,,,,,,,,,,,,,,num_2,0,0.7404393000001619,292.1908918000004,None,13,21,female,2023_Oct_10_1412,control,2021.2.3,59.92670963421383,
,0.4,1,11.8,99999,0.5,0.1,11.8,3,,,,,4,8,80,12,,,,,,,,,,,,,,,,num_1,0,0.7010936000001493,294.3575358000003,None,13,21,female,2023_Oct_10_1412,control,2021.2.3,59.92670963421383,
,0.25,1,11.35,99999,0.31,0.06,11.35,4,,,,,4,9,81,8,,,,,,,,,,,,,,,,num_1,0,1.1654527000000598,296.74091380000027,None,13,21,female,2023_Oct_10_1412,control,2021.2.3,59.92670963421383,
,0.1,1,11.8,99999,0.2,0.1,11.8,3,,,,,4,10,82,0,,,,,,,,,,,,,,,,num_1,0,0.9238648000000467,299.57431240000005,None,13,21,female,2023_Oct_10_1412,control,2021.2.3,59.92670963421383,
,0.4,1,11.8,99999,0.5,0.1,11.8,5,,,,,4,11,83,16,,,,,,,,,,,,,,,,num_1,0,0.3620323999998618,302.4242569000003,None,13,21,female,2023_Oct_10_1412,control,2021.2.3,59.92670963421383,
,0.1,1,11.35,99999,0.16,0.06,11.35,4,,,,,4,12,84,2,,,,,,,,,,,,,,,,num_1,0,11.75675739999997,303.9575168000001,None,13,21,female,2023_Oct_10_1412,control,2021.2.3,59.92670963421383,
,0.25,1,11.8,99999,0.35,0.1,11.8,3,,,,,4,13,85,6,,,,,,,,,,,,,,,,num_1,0,1.027715100000023,317.3908384000001,None,13,21,female,2023_Oct_10_1412,control,2021.2.3,59.92670963421383,
,0.1,2,11.600000000000001,12,0.2,0.1,11.8,5,,,,,4,14,86,5,,,,,,,,,,,,,,,,num_2,0,0.6276540999997451,320.5907871000004,None,13,21,female,2023_Oct_10_1412,control,2021.2.3,59.92670963421383,
,0.4,1,11.35,99999,0.46,0.06,11.35,4,,,,,4,15,87,14,,,,,,,,,,,,,,,,num_1,0,0.7072226999998747,323.39090080000005,None,13,21,female,2023_Oct_10_1412,control,2021.2.3,59.92670963421383,
,0.25,2,11.04,11.66,0.31,0.06,11.35,4,,,,,4,16,88,9,,,,,,,,,,,,,,,,num_2,0,0.9762365999999929,326.2740428000002,None,13,21,female,2023_Oct_10_1412,control,2021.2.3,59.92670963421383,
,0.4,2,10.889999999999999,11.81,0.46,0.06,11.35,4,,,,,4,17,89,15,,,,,,,,,,,,,,,,num_2,0,0.5460676999996394,329.4242516000004,None,13,21,female,2023_Oct_10_1412,control,2021.2.3,59.92670963421383,
,0.1,2,11.600000000000001,12,0.2,0.1,11.8,3,,,,,5,0,90,1,,,,,,,,,,,,,,,,num_2,0,1.071555100000296,331.8907476000004,None,13,21,female,2023_Oct_10_1412,control,2021.2.3,59.92670963421383,
,0.1,2,11.19,11.51,0.16,0.06,11.35,4,,,,,5,1,91,3,,,,,,,,,,,,,,,,num_2,0,0.4552444999999352,334.89094460000024,None,13,21,female,2023_Oct_10_1412,control,2021.2.3,59.92670963421383,
,0.1,1,11.8,99999,0.2,0.1,11.8,3,,,,,5,2,92,0,,,,,,,,,,,,,,,,num_2,0,0.9740155000004052,337.5241482000001,None,13,21,female,2023_Oct_10_1412,control,2021.2.3,59.92670963421383,
,0.25,2,11.450000000000001,12.15,0.35,0.1,11.8,5,,,,,5,3,93,11,,,,,,,,,,,,,,,,num_2,0,1.8722437000001264,340.6740162000001,None,13,21,female,2023_Oct_10_1412,control,2021.2.3,59.92670963421383,
,0.4,1,11.35,99999,0.46,0.06,11.35,4,,,,,5,4,94,14,,,,,,,,,,,,,,,,num_2,0,0.8659405999997034,344.22425350000003,None,13,21,female,2023_Oct_10_1412,control,2021.2.3,59.92670963421383,
,0.25,1,11.8,99999,0.35,0.1,11.8,5,,,,,5,5,95,10,,,,,,,,,,,,,,,,num_1,0,0.726855500000056,346.50747630000023,None,13,21,female,2023_Oct_10_1412,control,2021.2.3,59.92670963421383,
,0.1,1,11.35,99999,0.16,0.06,11.35,4,,,,,5,6,96,2,,,,,,,,,,,,,,,,num_1,0,0.7546852999998919,349.40748410000015,None,13,21,female,2023_Oct_10_1412,control,2021.2.3,59.92670963421383,
,0.1,2,11.600000000000001,12,0.2,0.1,11.8,5,,,,,5,7,97,5,,,,,,,,,,,,,,,,num_2,0,1.949424700000236,352.3407857000002,None,13,21,female,2023_Oct_10_1412,control,2021.2.3,59.92670963421383,
,0.25,2,11.450000000000001,12.15,0.35,0.1,11.8,3,,,,,5,8,98,7,,,,,,,,,,,,,,,,num_1,0,2.7069212999999763,356.20725570000013,None,13,21,female,2023_Oct_10_1412,control,2021.2.3,59.92670963421383,
,0.25,2,11.04,11.66,0.31,0.06,11.35,4,,,,,5,9,99,9,,,,,,,,,,,,,,,,num_2,0,0.40962500000023283,360.8407486000001,None,13,21,female,2023_Oct_10_1412,control,2021.2.3,59.92670963421383,
,0.4,2,10.889999999999999,11.81,0.46,0.06,11.35,4,,,,,5,10,100,15,,,,,,,,,,,,,,,,num_2,0,0.4662406000002193,363.4240205000001,None,13,21,female,2023_Oct_10_1412,control,2021.2.3,59.92670963421383,
,0.4,2,11.3,12.3,0.5,0.1,11.8,3,,,,,5,11,101,13,,,,,,,,,,,,,,,,num_2,0,0.35868289999962144,365.3075627000003,None,13,21,female,2023_Oct_10_1412,control,2021.2.3,59.92670963421383,
,0.4,1,11.8,99999,0.5,0.1,11.8,3,,,,,5,12,102,12,,,,,,,,,,,,,,,,num_2,0,1.0014301999999589,366.84080520000043,None,13,21,female,2023_Oct_10_1412,control,2021.2.3,59.92670963421383,
,0.4,2,11.3,12.3,0.5,0.1,11.8,5,,,,,5,13,103,17,,,,,,,,,,,,,,,,num_2,0,0.42662360000031185,370.0075496000004,None,13,21,female,2023_Oct_10_1412,control,2021.2.3,59.92670963421383,
,0.25,1,11.8,99999,0.35,0.1,11.8,3,,,,,5,14,104,6,,,,,,,,,,,,,,,,num_2,0,1.068511800000124,372.35746050000034,None,13,21,female,2023_Oct_10_1412,control,2021.2.3,59.92670963421383,
,0.25,1,11.35,99999,0.31,0.06,11.35,4,,,,,5,15,105,8,,,,,,,,,,,,,,,,num_1,0,0.4727431000001161,374.85756230000015,None,13,21,female,2023_Oct_10_1412,control,2021.2.3,59.92670963421383,
,0.1,1,11.8,99999,0.2,0.1,11.8,5,,,,,5,16,106,4,,,,,,,,,,,,,,,,num_1,0,0.4787805999999364,377.5073715000003,None,13,21,female,2023_Oct_10_1412,control,2021.2.3,59.92670963421383,
,0.4,1,11.8,99999,0.5,0.1,11.8,5,,,,,5,17,107,16,,,,,,,,,,,,,,,,num_2,0,2.2009428999999727,379.6573641,None,13,21,female,2023_Oct_10_1412,control,2021.2.3,59.92670963421383,
