posx,w,amount,posx1,posx2,center_to_center,edge_to_edge,eccentricity,setsize_cobdi,first.thisRepN,first.thisTrialN,first.thisN,first.thisIndex,second.thisRepN,second.thisTrialN,second.thisN,second.thisIndex,text_2.started,text_2.stopped,key_resp_2.keys,key_resp_2.rt,starting_width_deg,response_width_degree,response_width_pixel,adjusting.started,adjusting.stopped,next.keys,next.rt,text_3.started,text_3.stopped,key_resp_3.keys,key_resp_3.rt,key_resp.keys,key_resp.corr,key_resp.rt,key_resp.started,key_resp.stopped,text.started,text.stopped,participant,age,gender,date,expName,psychopyVersion,frameRate,
,,,,,,,,,,,,,,,,,25.22109259996796,None,c,2.032148300029803,,,,,,,,,,,,,,,,,,,15,19,female,2023_Oct_17_1642,control,2021.2.3,60.03431561052026,
10,0.25,,,,,,,,0,0,0,1,,,,,,,,,0.15,0.2,6.79209,28.457316099957097,None,return,18.587370299967006,,,,,,,,,,,,15,19,female,2023_Oct_17_1642,control,2021.2.3,60.03431561052026,
10,0.4,,,,,,,,0,1,1,2,,,,,,,,,0.25,0.2,6.79209,48.22394149994943,None,return,3.2049831000040285,,,,,,,,,,,,15,19,female,2023_Oct_17_1642,control,2021.2.3,60.03431561052026,
10,0.1,,,,,,,,0,2,2,0,,,,,,,,,0.4,0.10000000000000007,3.39604,52.85697500000242,None,return,4.8919144999817945,,,,,,,,,,,,15,19,female,2023_Oct_17_1642,control,2021.2.3,60.03431561052026,
10,0.1,,,,,,,,1,0,3,0,,,,,,,,,0.25,0.10000000000000002,3.39604,59.67394139996031,None,return,5.49857090000296,,,,,,,,,,,,15,19,female,2023_Oct_17_1642,control,2021.2.3,60.03431561052026,
10,0.25,,,,,,,,1,1,4,1,,,,,,,,,0.25,0.2,6.79209,67.09061529999599,None,return,4.865954300039448,,,,,,,,,,,,15,19,female,2023_Oct_17_1642,control,2021.2.3,60.03431561052026,
10,0.4,,,,,,,,1,2,5,2,,,,,,,,,0.4,0.35000000000000003,11.88616,74.12393139995402,None,return,3.928883299988229,,,,,,,,,,,,15,19,female,2023_Oct_17_1642,control,2021.2.3,60.03431561052026,
10,0.4,,,,,,,,2,0,6,2,,,,,,,,,0.15,0.39999999999999997,13.58418,79.72366659995168,None,return,5.14505829999689,,,,,,,,,,,,15,19,female,2023_Oct_17_1642,control,2021.2.3,60.03431561052026,
10,0.25,,,,,,,,2,1,7,1,,,,,,,,,0.4,0.20000000000000007,6.79209,87.04058149998309,None,return,2.9961570000159554,,,,,,,,,,,,15,19,female,2023_Oct_17_1642,control,2021.2.3,60.03431561052026,
10,0.1,,,,,,,,2,2,8,0,,,,,,,,,0.25,0.10000000000000002,3.39604,91.20707349997247,None,return,3.6776129999780096,,,,,,,,,,,,15,19,female,2023_Oct_17_1642,control,2021.2.3,60.03431561052026,
10,0.4,,,,,,,,3,0,9,2,,,,,,,,,0.25,0.3,10.18813,96.30708989995765,None,return,3.905455100000836,,,,,,,,,,,,15,19,female,2023_Oct_17_1642,control,2021.2.3,60.03431561052026,
10,0.25,,,,,,,,3,1,10,1,,,,,,,,,0.3,0.2,6.79209,101.89043669996317,None,return,3.2982644999865443,,,,,,,,,,,,15,19,female,2023_Oct_17_1642,control,2021.2.3,60.03431561052026,
10,0.1,,,,,,,,3,2,11,0,,,,,,,,,0.1,0.1,3.39604,107.10722849995364,None,return,1.7298436000128277,,,,,,,,,,,,15,19,female,2023_Oct_17_1642,control,2021.2.3,60.03431561052026,
10,0.4,,,,,,,,4,0,12,2,,,,,,,,,0.4,0.35000000000000003,11.88616,110.75720599998021,None,return,2.943433099950198,,,,,,,,,,,,15,19,female,2023_Oct_17_1642,control,2021.2.3,60.03431561052026,
10,0.1,,,,,,,,4,1,13,0,,,,,,,,,0.45,0.25000000000000006,8.49011,115.12368389999028,None,return,4.145145699963905,,,,,,,,,,,,15,19,female,2023_Oct_17_1642,control,2021.2.3,60.03431561052026,
10,0.25,,,,,,,,4,2,14,1,,,,,,,,,0.45,0.20000000000000007,6.79209,121.19031579996226,None,return,2.526608199987095,,,,,,,,,,,,15,19,female,2023_Oct_17_1642,control,2021.2.3,60.03431561052026,
10,0.4,,,,,,,,5,0,15,2,,,,,,,,,0.25,0.35,11.88616,125.3902676999569,None,return,2.3426430000108667,,,,,,,,,,,,15,19,female,2023_Oct_17_1642,control,2021.2.3,60.03431561052026,
10,0.1,,,,,,,,5,1,16,0,,,,,,,,,0.25,0.10000000000000002,3.39604,128.90699749998748,None,return,2.0896111999754794,,,,,,,,,,,,15,19,female,2023_Oct_17_1642,control,2021.2.3,60.03431561052026,
10,0.25,,,,,,,,5,2,17,1,,,,,,,,,0.1,0.35,11.88616,132.173771999951,None,return,3.0948910000151955,,,,,,,,,,,,15,19,female,2023_Oct_17_1642,control,2021.2.3,60.03431561052026,
,,,,,,,,,,,,,,,,,,,,,,,,,,,,135.29041829996277,None,c,2.1223394999979064,,,,,,,,15,19,female,2023_Oct_17_1642,control,2021.2.3,60.03431561052026,
,0.4,1,11.8,99999,0.5,0.1,11.8,3,,,,,0,0,0,12,,,,,,,,,,,,,,,,num_1,0,2.19023659999948,139.60718299995642,None,,,15,19,female,2023_Oct_17_1642,control,2021.2.3,60.03431561052026,
,0.4,1,11.35,99999,0.46,0.06,11.35,4,,,,,0,1,1,14,,,,,,,,,,,,,,,,num_1,0,3.5913854999816976,142.97358089999761,None,,,15,19,female,2023_Oct_17_1642,control,2021.2.3,60.03431561052026,
,0.25,1,11.35,99999,0.31,0.06,11.35,4,,,,,0,2,2,8,,,,,,,,,,,,,,,,num_1,0,0.8971047000377439,148.74037600000156,None,,,15,19,female,2023_Oct_17_1642,control,2021.2.3,60.03431561052026,
,0.4,2,10.889999999999999,11.81,0.46,0.06,11.35,4,,,,,0,3,3,15,,,,,,,,,,,,,,,,num_2,0,0.895802500017453,151.55701920000138,None,,,15,19,female,2023_Oct_17_1642,control,2021.2.3,60.03431561052026,
,0.4,1,11.8,99999,0.5,0.1,11.8,5,,,,,0,4,4,16,,,,,,,,,,,,,,,,num_1,0,0.6552959000109695,154.37372229999164,None,,,15,19,female,2023_Oct_17_1642,control,2021.2.3,60.03431561052026,
,0.25,2,11.450000000000001,12.15,0.35,0.1,11.8,5,,,,,0,5,5,11,,,,,,,,,,,,,,,,num_2,0,0.517980600008741,156.20688049995806,None,,,15,19,female,2023_Oct_17_1642,control,2021.2.3,60.03431561052026,
,0.1,2,11.600000000000001,12,0.2,0.1,11.8,5,,,,,0,6,6,5,,,,,,,,,,,,,,,,num_2,0,1.0807962999679148,158.1403698999784,None,,,15,19,female,2023_Oct_17_1642,control,2021.2.3,60.03431561052026,
,0.1,2,11.600000000000001,12,0.2,0.1,11.8,3,,,,,0,7,7,1,,,,,,,,,,,,,,,,num_2,0,0.46808090002741665,160.64021199999843,None,,,15,19,female,2023_Oct_17_1642,control,2021.2.3,60.03431561052026,
,0.25,2,11.450000000000001,12.15,0.35,0.1,11.8,3,,,,,0,8,8,7,,,,,,,,,,,,,,,,num_2,0,0.5164812000002712,163.04036849999102,None,,,15,19,female,2023_Oct_17_1642,control,2021.2.3,60.03431561052026,
,0.1,2,11.19,11.51,0.16,0.06,11.35,4,,,,,0,9,9,3,,,,,,,,,,,,,,,,num_2,0,0.5512265000143088,164.97350549994735,None,,,15,19,female,2023_Oct_17_1642,control,2021.2.3,60.03431561052026,
,0.4,2,11.3,12.3,0.5,0.1,11.8,5,,,,,0,10,10,17,,,,,,,,,,,,,,,,num_2,0,0.4826087999972515,166.69030649994966,None,,,15,19,female,2023_Oct_17_1642,control,2021.2.3,60.03431561052026,
,0.1,1,11.8,99999,0.2,0.1,11.8,5,,,,,0,11,11,4,,,,,,,,,,,,,,,,num_1,0,0.37046569999074563,169.09039729996584,None,,,15,19,female,2023_Oct_17_1642,control,2021.2.3,60.03431561052026,
,0.25,1,11.8,99999,0.35,0.1,11.8,5,,,,,0,12,12,10,,,,,,,,,,,,,,,,num_1,0,0.34679169999435544,170.89037979999557,None,,,15,19,female,2023_Oct_17_1642,control,2021.2.3,60.03431561052026,
,0.25,1,11.8,99999,0.35,0.1,11.8,3,,,,,0,13,13,6,,,,,,,,,,,,,,,,num_1,0,0.7981083000195213,172.40700740000466,None,,,15,19,female,2023_Oct_17_1642,control,2021.2.3,60.03431561052026,
,0.25,2,11.04,11.66,0.31,0.06,11.35,4,,,,,0,14,14,9,,,,,,,,,,,,,,,,num_2,0,0.46359709999524057,174.37356449995423,None,,,15,19,female,2023_Oct_17_1642,control,2021.2.3,60.03431561052026,
,0.4,2,11.3,12.3,0.5,0.1,11.8,3,,,,,0,15,15,13,,,,,,,,,,,,,,,,num_2,0,0.515519900014624,176.25711459998274,None,,,15,19,female,2023_Oct_17_1642,control,2021.2.3,60.03431561052026,
,0.1,1,11.35,99999,0.16,0.06,11.35,4,,,,,0,16,16,2,,,,,,,,,,,,,,,,num_1,0,0.3527979000355117,177.9402331999736,None,,,15,19,female,2023_Oct_17_1642,control,2021.2.3,60.03431561052026,
,0.1,1,11.8,99999,0.2,0.1,11.8,3,,,,,0,17,17,0,,,,,,,,,,,,,,,,num_1,0,0.46941209997748956,180.22360529995058,None,,,15,19,female,2023_Oct_17_1642,control,2021.2.3,60.03431561052026,
,0.4,1,11.35,99999,0.46,0.06,11.35,4,,,,,1,0,18,14,,,,,,,,,,,,,,,,num_1,0,0.42143759998725727,182.62359919998562,None,,,15,19,female,2023_Oct_17_1642,control,2021.2.3,60.03431561052026,
,0.25,2,11.450000000000001,12.15,0.35,0.1,11.8,5,,,,,1,1,19,11,,,,,,,,,,,,,,,,num_2,0,0.4367454999592155,184.22367809998104,None,,,15,19,female,2023_Oct_17_1642,control,2021.2.3,60.03431561052026,
,0.4,2,11.3,12.3,0.5,0.1,11.8,5,,,,,1,2,20,17,,,,,,,,,,,,,,,,num_2,0,0.4007698000059463,186.3403986999765,None,,,15,19,female,2023_Oct_17_1642,control,2021.2.3,60.03431561052026,
,0.25,2,11.450000000000001,12.15,0.35,0.1,11.8,3,,,,,1,3,21,7,,,,,,,,,,,,,,,,num_1,0,0.29786789999343455,188.9069920000038,None,,,15,19,female,2023_Oct_17_1642,control,2021.2.3,60.03431561052026,
,0.25,1,11.35,99999,0.31,0.06,11.35,4,,,,,1,4,22,8,,,,,,,,,,,,,,,,num_1,0,0.5332735999836586,190.62366349995136,None,,,15,19,female,2023_Oct_17_1642,control,2021.2.3,60.03431561052026,
,0.1,2,11.600000000000001,12,0.2,0.1,11.8,3,,,,,1,5,23,1,,,,,,,,,,,,,,,,num_2,0,0.5508112999959849,192.57370029995218,None,,,15,19,female,2023_Oct_17_1642,control,2021.2.3,60.03431561052026,
,0.4,1,11.8,99999,0.5,0.1,11.8,3,,,,,1,6,24,12,,,,,,,,,,,,,,,,num_1,0,0.484670499979984,195.0401343999547,None,,,15,19,female,2023_Oct_17_1642,control,2021.2.3,60.03431561052026,
,0.1,2,11.19,11.51,0.16,0.06,11.35,4,,,,,1,7,25,3,,,,,,,,,,,,,,,,num_2,0,0.3467495999648236,197.69038059999002,None,,,15,19,female,2023_Oct_17_1642,control,2021.2.3,60.03431561052026,
,0.4,2,11.3,12.3,0.5,0.1,11.8,3,,,,,1,8,26,13,,,,,,,,,,,,,,,,num_2,0,0.4959000000380911,199.95674659998622,None,,,15,19,female,2023_Oct_17_1642,control,2021.2.3,60.03431561052026,
,0.1,1,11.35,99999,0.16,0.06,11.35,4,,,,,1,9,27,2,,,,,,,,,,,,,,,,num_1,0,0.521528999961447,202.12351319997106,None,,,15,19,female,2023_Oct_17_1642,control,2021.2.3,60.03431561052026,
,0.25,2,11.04,11.66,0.31,0.06,11.35,4,,,,,1,10,28,9,,,,,,,,,,,,,,,,num_2,0,0.46139160002348945,204.82364479999524,None,,,15,19,female,2023_Oct_17_1642,control,2021.2.3,60.03431561052026,
,0.1,1,11.8,99999,0.2,0.1,11.8,3,,,,,1,11,29,0,,,,,,,,,,,,,,,,num_1,0,0.49215369997546077,206.45695169997634,None,,,15,19,female,2023_Oct_17_1642,control,2021.2.3,60.03431561052026,
,0.25,1,11.8,99999,0.35,0.1,11.8,5,,,,,1,12,30,10,,,,,,,,,,,,,,,,num_1,0,0.5235229999525473,208.87349069997435,None,,,15,19,female,2023_Oct_17_1642,control,2021.2.3,60.03431561052026,
,0.4,1,11.8,99999,0.5,0.1,11.8,5,,,,,1,13,31,16,,,,,,,,,,,,,,,,num_1,0,0.4673295000102371,211.07362979999743,None,,,15,19,female,2023_Oct_17_1642,control,2021.2.3,60.03431561052026,
,0.25,1,11.8,99999,0.35,0.1,11.8,3,,,,,1,14,32,6,,,,,,,,,,,,,,,,num_1,0,0.5620694000390358,212.70687439996982,None,,,15,19,female,2023_Oct_17_1642,control,2021.2.3,60.03431561052026,
,0.1,2,11.600000000000001,12,0.2,0.1,11.8,5,,,,,1,15,33,5,,,,,,,,,,,,,,,,num_2,0,0.516452300013043,215.44008589995792,None,,,15,19,female,2023_Oct_17_1642,control,2021.2.3,60.03431561052026,
,0.4,2,10.889999999999999,11.81,0.46,0.06,11.35,4,,,,,1,16,34,15,,,,,,,,,,,,,,,,num_2,0,0.4974627000046894,217.12361129996134,None,,,15,19,female,2023_Oct_17_1642,control,2021.2.3,60.03431561052026,
,0.1,1,11.8,99999,0.2,0.1,11.8,5,,,,,1,17,35,4,,,,,,,,,,,,,,,,num_1,0,0.3031224000151269,218.79030809999676,None,,,15,19,female,2023_Oct_17_1642,control,2021.2.3,60.03431561052026,
,0.1,2,11.600000000000001,12,0.2,0.1,11.8,3,,,,,2,0,36,1,,,,,,,,,,,,,,,,num_2,0,0.4992820000043139,220.27352679998148,None,,,15,19,female,2023_Oct_17_1642,control,2021.2.3,60.03431561052026,
,0.1,2,11.19,11.51,0.16,0.06,11.35,4,,,,,2,1,37,3,,,,,,,,,,,,,,,,num_2,0,0.6973020000150427,222.94017849996453,None,,,15,19,female,2023_Oct_17_1642,control,2021.2.3,60.03431561052026,
,0.1,2,11.600000000000001,12,0.2,0.1,11.8,5,,,,,2,2,38,5,,,,,,,,,,,,,,,,num_2,0,0.43644570000469685,225.0567192999879,None,,,15,19,female,2023_Oct_17_1642,control,2021.2.3,60.03431561052026,
,0.4,1,11.35,99999,0.46,0.06,11.35,4,,,,,2,3,39,14,,,,,,,,,,,,,,,,num_1,0,0.575597100018058,227.17346839996753,None,,,15,19,female,2023_Oct_17_1642,control,2021.2.3,60.03431561052026,
,0.25,1,11.8,99999,0.35,0.1,11.8,3,,,,,2,4,40,6,,,,,,,,,,,,,,,,num_1,0,0.6552526000305079,229.17354619997786,None,,,15,19,female,2023_Oct_17_1642,control,2021.2.3,60.03431561052026,
,0.25,1,11.35,99999,0.31,0.06,11.35,4,,,,,2,5,41,8,,,,,,,,,,,,,,,,num_1,0,0.6801010000053793,231.75693609996233,None,,,15,19,female,2023_Oct_17_1642,control,2021.2.3,60.03431561052026,
,0.1,1,11.35,99999,0.16,0.06,11.35,4,,,,,2,6,42,2,,,,,,,,,,,,,,,,num_1,0,0.6504080999875441,234.10685569996713,None,,,15,19,female,2023_Oct_17_1642,control,2021.2.3,60.03431561052026,
,0.25,2,11.450000000000001,12.15,0.35,0.1,11.8,3,,,,,2,7,43,7,,,,,,,,,,,,,,,,num_2,0,0.5439765999908559,235.9403945999802,None,,,15,19,female,2023_Oct_17_1642,control,2021.2.3,60.03431561052026,
,0.25,1,11.8,99999,0.35,0.1,11.8,5,,,,,2,8,44,10,,,,,,,,,,,,,,,,num_1,0,0.4941254999721423,238.40693399996962,None,,,15,19,female,2023_Oct_17_1642,control,2021.2.3,60.03431561052026,
,0.25,2,11.04,11.66,0.31,0.06,11.35,4,,,,,2,9,45,9,,,,,,,,,,,,,,,,num_2,0,0.4871199000044726,240.57373539998662,None,,,15,19,female,2023_Oct_17_1642,control,2021.2.3,60.03431561052026,
,0.25,2,11.450000000000001,12.15,0.35,0.1,11.8,5,,,,,2,10,46,11,,,,,,,,,,,,,,,,num_2,0,0.5643899000133388,242.24026940000476,None,,,15,19,female,2023_Oct_17_1642,control,2021.2.3,60.03431561052026,
,0.4,2,10.889999999999999,11.81,0.46,0.06,11.35,4,,,,,2,11,47,15,,,,,,,,,,,,,,,,num_2,0,0.2872635000385344,243.9737317999825,None,,,15,19,female,2023_Oct_17_1642,control,2021.2.3,60.03431561052026,
,0.4,2,11.3,12.3,0.5,0.1,11.8,5,,,,,2,12,48,17,,,,,,,,,,,,,,,,num_2,0,0.4808066999539733,245.94019429996843,None,,,15,19,female,2023_Oct_17_1642,control,2021.2.3,60.03431561052026,
,0.4,1,11.8,99999,0.5,0.1,11.8,5,,,,,2,13,49,16,,,,,,,,,,,,,,,,num_1,0,0.3907526000402868,248.59022219997132,None,,,15,19,female,2023_Oct_17_1642,control,2021.2.3,60.03431561052026,
,0.4,1,11.8,99999,0.5,0.1,11.8,3,,,,,2,14,50,12,,,,,,,,,,,,,,,,num_1,0,0.5042772999731824,250.15691169997444,None,,,15,19,female,2023_Oct_17_1642,control,2021.2.3,60.03431561052026,
,0.1,1,11.8,99999,0.2,0.1,11.8,5,,,,,2,15,51,4,,,,,,,,,,,,,,,,num_1,0,0.4123339000507258,252.84004119999008,None,,,15,19,female,2023_Oct_17_1642,control,2021.2.3,60.03431561052026,
,0.4,2,11.3,12.3,0.5,0.1,11.8,3,,,,,2,16,52,13,,,,,,,,,,,,,,,,num_2,0,0.5373387000290677,254.92350309999892,None,,,15,19,female,2023_Oct_17_1642,control,2021.2.3,60.03431561052026,
,0.1,1,11.8,99999,0.2,0.1,11.8,3,,,,,2,17,53,0,,,,,,,,,,,,,,,,num_1,0,0.43671089998679236,256.6402453999617,None,,,15,19,female,2023_Oct_17_1642,control,2021.2.3,60.03431561052026,
,0.25,2,11.450000000000001,12.15,0.35,0.1,11.8,5,,,,,3,0,54,11,,,,,,,,,,,,,,,,num_2,0,0.48580119997495785,259.0068075999734,None,,,15,19,female,2023_Oct_17_1642,control,2021.2.3,60.03431561052026,
,0.25,1,11.35,99999,0.31,0.06,11.35,4,,,,,3,1,55,8,,,,,,,,,,,,,,,,num_1,0,0.6019697999581695,260.923599599977,None,,,15,19,female,2023_Oct_17_1642,control,2021.2.3,60.03431561052026,
,0.25,1,11.8,99999,0.35,0.1,11.8,5,,,,,3,2,56,10,,,,,,,,,,,,,,,,num_1,0,0.5318471000064164,263.4569774999982,None,,,15,19,female,2023_Oct_17_1642,control,2021.2.3,60.03431561052026,
,0.4,1,11.8,99999,0.5,0.1,11.8,3,,,,,3,3,57,12,,,,,,,,,,,,,,,,num_1,0,0.5185612000059336,265.4069793999661,None,,,15,19,female,2023_Oct_17_1642,control,2021.2.3,60.03431561052026,
,0.4,2,10.889999999999999,11.81,0.46,0.06,11.35,4,,,,,3,4,58,15,,,,,,,,,,,,,,,,num_2,0,0.5481629999703728,267.8568614999531,None,,,15,19,female,2023_Oct_17_1642,control,2021.2.3,60.03431561052026,
,0.1,2,11.19,11.51,0.16,0.06,11.35,4,,,,,3,5,59,3,,,,,,,,,,,,,,,,num_2,0,0.7433023999910802,270.57331899995916,None,,,15,19,female,2023_Oct_17_1642,control,2021.2.3,60.03431561052026,
,0.25,2,11.04,11.66,0.31,0.06,11.35,4,,,,,3,6,60,9,,,,,,,,,,,,,,,,num_2,0,0.582743400009349,272.9901569999638,None,,,15,19,female,2023_Oct_17_1642,control,2021.2.3,60.03431561052026,
,0.4,1,11.35,99999,0.46,0.06,11.35,4,,,,,3,7,61,14,,,,,,,,,,,,,,,,num_1,0,0.3268631999962963,274.9901159000001,None,,,15,19,female,2023_Oct_17_1642,control,2021.2.3,60.03431561052026,
,0.1,1,11.35,99999,0.16,0.06,11.35,4,,,,,3,8,62,2,,,,,,,,,,,,,,,,num_1,0,0.4985838999855332,277.4902120999759,None,,,15,19,female,2023_Oct_17_1642,control,2021.2.3,60.03431561052026,
,0.4,2,11.3,12.3,0.5,0.1,11.8,5,,,,,3,9,63,17,,,,,,,,,,,,,,,,num_2,0,0.17785290000028908,279.9067477999488,None,,,15,19,female,2023_Oct_17_1642,control,2021.2.3,60.03431561052026,
,0.1,1,11.8,99999,0.2,0.1,11.8,3,,,,,3,10,64,0,,,,,,,,,,,,,,,,num_1,0,0.3283989999908954,281.75663099996746,None,,,15,19,female,2023_Oct_17_1642,control,2021.2.3,60.03431561052026,
,0.4,1,11.8,99999,0.5,0.1,11.8,5,,,,,3,11,65,16,,,,,,,,,,,,,,,,num_1,0,0.7376833999878727,283.5068818999571,None,,,15,19,female,2023_Oct_17_1642,control,2021.2.3,60.03431561052026,
,0.1,2,11.600000000000001,12,0.2,0.1,11.8,3,,,,,3,12,66,1,,,,,,,,,,,,,,,,num_2,0,0.4210084999795072,285.42348649998894,None,,,15,19,female,2023_Oct_17_1642,control,2021.2.3,60.03431561052026,
,0.25,1,11.8,99999,0.35,0.1,11.8,3,,,,,3,13,67,6,,,,,,,,,,,,,,,,num_1,0,0.5195836999919266,287.77349339996,None,,,15,19,female,2023_Oct_17_1642,control,2021.2.3,60.03431561052026,
,0.4,2,11.3,12.3,0.5,0.1,11.8,3,,,,,3,14,68,13,,,,,,,,,,,,,,,,num_2,0,0.26762060000328347,290.47345689998474,None,,,15,19,female,2023_Oct_17_1642,control,2021.2.3,60.03431561052026,
,0.1,2,11.600000000000001,12,0.2,0.1,11.8,5,,,,,3,15,69,5,,,,,,,,,,,,,,,,num_2,0,0.505863500002306,292.923449599999,None,,,15,19,female,2023_Oct_17_1642,control,2021.2.3,60.03431561052026,
,0.1,1,11.8,99999,0.2,0.1,11.8,5,,,,,3,16,70,4,,,,,,,,,,,,,,,,num_1,0,0.4625555999809876,295.6067141999956,None,,,15,19,female,2023_Oct_17_1642,control,2021.2.3,60.03431561052026,
,0.25,2,11.450000000000001,12.15,0.35,0.1,11.8,3,,,,,3,17,71,7,,,,,,,,,,,,,,,,num_2,0,0.6769612999632955,298.2399809999624,None,,,15,19,female,2023_Oct_17_1642,control,2021.2.3,60.03431561052026,
,0.1,2,11.600000000000001,12,0.2,0.1,11.8,3,,,,,4,0,72,1,,,,,,,,,,,,,,,,num_2,0,0.37909689999651164,300.08997679996537,None,,,15,19,female,2023_Oct_17_1642,control,2021.2.3,60.03431561052026,
,0.25,1,11.8,99999,0.35,0.1,11.8,5,,,,,4,1,73,10,,,,,,,,,,,,,,,,num_1,0,0.6384682999923825,302.3902603999595,None,,,15,19,female,2023_Oct_17_1642,control,2021.2.3,60.03431561052026,
,0.4,2,10.889999999999999,11.81,0.46,0.06,11.35,4,,,,,4,2,74,15,,,,,,,,,,,,,,,,num_2,0,0.23144559998763725,304.9568601999781,None,,,15,19,female,2023_Oct_17_1642,control,2021.2.3,60.03431561052026,
,0.1,2,11.600000000000001,12,0.2,0.1,11.8,5,,,,,4,3,75,5,,,,,,,,,,,,,,,,num_1,0,0.3157515999628231,306.8570000999607,None,,,15,19,female,2023_Oct_17_1642,control,2021.2.3,60.03431561052026,
,0.4,2,11.3,12.3,0.5,0.1,11.8,5,,,,,4,4,76,17,,,,,,,,,,,,,,,,num_2,0,0.41675189998932183,308.3399836999597,None,,,15,19,female,2023_Oct_17_1642,control,2021.2.3,60.03431561052026,
,0.25,2,11.450000000000001,12.15,0.35,0.1,11.8,3,,,,,4,5,77,7,,,,,,,,,,,,,,,,num_2,0,0.4011696000234224,309.9233127000043,None,,,15,19,female,2023_Oct_17_1642,control,2021.2.3,60.03431561052026,
,0.25,1,11.35,99999,0.31,0.06,11.35,4,,,,,4,6,78,8,,,,,,,,,,,,,,,,num_1,0,0.4886475999956019,311.7401282999781,None,,,15,19,female,2023_Oct_17_1642,control,2021.2.3,60.03431561052026,
,0.1,1,11.8,99999,0.2,0.1,11.8,3,,,,,4,7,79,0,,,,,,,,,,,,,,,,num_1,0,0.710148999991361,313.40688529994804,None,,,15,19,female,2023_Oct_17_1642,control,2021.2.3,60.03431561052026,
,0.25,2,11.04,11.66,0.31,0.06,11.35,4,,,,,4,8,80,9,,,,,,,,,,,,,,,,num_2,0,0.5289964000112377,315.5399992999737,None,,,15,19,female,2023_Oct_17_1642,control,2021.2.3,60.03431561052026,
,0.25,2,11.450000000000001,12.15,0.35,0.1,11.8,5,,,,,4,9,81,11,,,,,,,,,,,,,,,,num_2,0,0.3247093000099994,318.2401867999579,None,,,15,19,female,2023_Oct_17_1642,control,2021.2.3,60.03431561052026,
,0.25,1,11.8,99999,0.35,0.1,11.8,3,,,,,4,10,82,6,,,,,,,,,,,,,,,,num_1,0,0.38444320001872256,320.7400881999638,None,,,15,19,female,2023_Oct_17_1642,control,2021.2.3,60.03431561052026,
,0.4,2,11.3,12.3,0.5,0.1,11.8,3,,,,,4,11,83,13,,,,,,,,,,,,,,,,num_2,0,0.456958599970676,322.54023329995107,None,,,15,19,female,2023_Oct_17_1642,control,2021.2.3,60.03431561052026,
,0.1,2,11.19,11.51,0.16,0.06,11.35,4,,,,,4,12,84,3,,,,,,,,,,,,,,,,num_2,0,0.4394251999910921,324.17338299995754,None,,,15,19,female,2023_Oct_17_1642,control,2021.2.3,60.03431561052026,
,0.1,1,11.35,99999,0.16,0.06,11.35,4,,,,,4,13,85,2,,,,,,,,,,,,,,,,num_1,0,5.635998800047673,326.28992519999156,None,,,15,19,female,2023_Oct_17_1642,control,2021.2.3,60.03431561052026,
,0.4,1,11.8,99999,0.5,0.1,11.8,3,,,,,4,14,86,12,,,,,,,,,,,,,,,,num_1,0,0.578159999975469,333.10678679996636,None,,,15,19,female,2023_Oct_17_1642,control,2021.2.3,60.03431561052026,
,0.4,1,11.8,99999,0.5,0.1,11.8,5,,,,,4,15,87,16,,,,,,,,,,,,,,,,num_1,0,0.37618380005005747,335.3567957999767,None,,,15,19,female,2023_Oct_17_1642,control,2021.2.3,60.03431561052026,
,0.4,1,11.35,99999,0.46,0.06,11.35,4,,,,,4,16,88,14,,,,,,,,,,,,,,,,num_1,0,0.4099386000307277,336.906966599985,None,,,15,19,female,2023_Oct_17_1642,control,2021.2.3,60.03431561052026,
,0.1,1,11.8,99999,0.2,0.1,11.8,5,,,,,4,17,89,4,,,,,,,,,,,,,,,,num_1,0,3.163560700020753,338.49009219999425,None,,,15,19,female,2023_Oct_17_1642,control,2021.2.3,60.03431561052026,
,0.25,2,11.450000000000001,12.15,0.35,0.1,11.8,5,,,,,5,0,90,11,,,,,,,,,,,,,,,,num_2,0,0.3682064000167884,343.5735253999592,None,,,15,19,female,2023_Oct_17_1642,control,2021.2.3,60.03431561052026,
,0.25,2,11.04,11.66,0.31,0.06,11.35,4,,,,,5,1,91,9,,,,,,,,,,,,,,,,num_2,0,0.6634117999929003,345.3735945999506,None,,,15,19,female,2023_Oct_17_1642,control,2021.2.3,60.03431561052026,
,0.1,2,11.600000000000001,12,0.2,0.1,11.8,3,,,,,5,2,92,1,,,,,,,,,,,,,,,,num_2,0,3.839921900012996,347.9566694999812,None,,,15,19,female,2023_Oct_17_1642,control,2021.2.3,60.03431561052026,
,0.1,2,11.600000000000001,12,0.2,0.1,11.8,5,,,,,5,3,93,5,,,,,,,,,,,,,,,,num_2,0,0.5683390999911353,352.9733503999887,None,,,15,19,female,2023_Oct_17_1642,control,2021.2.3,60.03431561052026,
,0.25,2,11.450000000000001,12.15,0.35,0.1,11.8,3,,,,,5,4,94,7,,,,,,,,,,,,,,,,num_2,0,0.38579319999553263,354.70665389997885,None,,,15,19,female,2023_Oct_17_1642,control,2021.2.3,60.03431561052026,
,0.25,1,11.35,99999,0.31,0.06,11.35,4,,,,,5,5,95,8,,,,,,,,,,,,,,,,num_1,0,0.5010523999808356,357.0234425999806,None,,,15,19,female,2023_Oct_17_1642,control,2021.2.3,60.03431561052026,
,0.4,1,11.35,99999,0.46,0.06,11.35,4,,,,,5,6,96,14,,,,,,,,,,,,,,,,num_1,0,0.46904619998531416,359.4398986999877,None,,,15,19,female,2023_Oct_17_1642,control,2021.2.3,60.03431561052026,
,0.4,2,11.3,12.3,0.5,0.1,11.8,3,,,,,5,7,97,13,,,,,,,,,,,,,,,,num_2,0,0.7575883999816142,361.84003639995353,None,,,15,19,female,2023_Oct_17_1642,control,2021.2.3,60.03431561052026,
,0.4,1,11.8,99999,0.5,0.1,11.8,3,,,,,5,8,98,12,,,,,,,,,,,,,,,,num_1,0,0.5215333999949507,364.52347620000364,None,,,15,19,female,2023_Oct_17_1642,control,2021.2.3,60.03431561052026,
,0.1,2,11.19,11.51,0.16,0.06,11.35,4,,,,,5,9,99,3,,,,,,,,,,,,,,,,num_2,0,0.5451441999757662,366.7233852999634,None,,,15,19,female,2023_Oct_17_1642,control,2021.2.3,60.03431561052026,
,0.25,1,11.8,99999,0.35,0.1,11.8,3,,,,,5,10,100,6,,,,,,,,,,,,,,,,num_1,0,0.4525503999902867,369.44011659995886,None,,,15,19,female,2023_Oct_17_1642,control,2021.2.3,60.03431561052026,
,0.1,1,11.35,99999,0.16,0.06,11.35,4,,,,,5,11,101,2,,,,,,,,,,,,,,,,num_1,0,0.645062500028871,371.82345539995003,None,,,15,19,female,2023_Oct_17_1642,control,2021.2.3,60.03431561052026,
,0.1,1,11.8,99999,0.2,0.1,11.8,3,,,,,5,12,102,0,,,,,,,,,,,,,,,,num_1,0,0.5107384999864735,374.39015659998404,None,,,15,19,female,2023_Oct_17_1642,control,2021.2.3,60.03431561052026,
,0.4,2,10.889999999999999,11.81,0.46,0.06,11.35,4,,,,,5,13,103,15,,,,,,,,,,,,,,,,num_2,0,0.3232332000043243,377.073569799948,None,,,15,19,female,2023_Oct_17_1642,control,2021.2.3,60.03431561052026,
,0.1,1,11.8,99999,0.2,0.1,11.8,5,,,,,5,14,104,4,,,,,,,,,,,,,,,,num_1,0,0.7391012999578379,379.0734339999617,None,,,15,19,female,2023_Oct_17_1642,control,2021.2.3,60.03431561052026,
,0.4,1,11.8,99999,0.5,0.1,11.8,5,,,,,5,15,105,16,,,,,,,,,,,,,,,,num_1,0,2.8665913000004366,381.4900971999741,None,,,15,19,female,2023_Oct_17_1642,control,2021.2.3,60.03431561052026,
,0.25,1,11.8,99999,0.35,0.1,11.8,5,,,,,5,16,106,10,,,,,,,,,,,,,,,,num_1,0,0.5296508999890648,385.5233106999658,None,,,15,19,female,2023_Oct_17_1642,control,2021.2.3,60.03431561052026,
,0.4,2,11.3,12.3,0.5,0.1,11.8,5,,,,,5,17,107,17,,,,,,,,,,,,,,,,num_2,0,0.5914417000021785,387.9734292999492,None,,,15,19,female,2023_Oct_17_1642,control,2021.2.3,60.03431561052026,
,,,,,,,,,,,,,,,,,,,,,,,,,,,,,,,,,,,,,388.59150889999,None,,,,,,,,
