posx,w,amount,posx1,posx2,center_to_center,edge_to_edge,eccentricity,setsize_cobdi,first.thisRepN,first.thisTrialN,first.thisN,first.thisIndex,second.thisRepN,second.thisTrialN,second.thisN,second.thisIndex,text_2.started,text_2.stopped,key_resp_2.keys,key_resp_2.rt,starting_width_deg,response_width_degree,response_width_pixel,adjusting.started,adjusting.stopped,next.keys,next.rt,text_3.started,text_3.stopped,key_resp_3.keys,key_resp_3.rt,key_resp.keys,key_resp.corr,key_resp.rt,key_resp.started,key_resp.stopped,text.started,text.stopped,participant,age,gender,date,expName,psychopyVersion,frameRate,
,,,,,,,,,,,,,,,,,14.967196099925786,None,c,14.133738200180233,,,,,,,,,,,,,,,,,,,2,23,female,2023_Aug_14_1116,control,2021.2.3,59.93888629276563,
10,0.25,,,,,,,,0,0,0,1,,,,,,,,,0.45,0.25000000000000006,8.49011,30.57447799993679,None,return,4.030397200025618,,,,,,,,,,,,2,23,female,2023_Aug_14_1116,control,2021.2.3,59.93888629276563,
10,0.4,,,,,,,,0,1,1,2,,,,,,,,,0.3,0.35,11.88616,36.02451159991324,None,return,2.7401061998680234,,,,,,,,,,,,2,23,female,2023_Aug_14_1116,control,2021.2.3,59.93888629276563,
10,0.1,,,,,,,,0,2,2,0,,,,,,,,,0.4,0.25000000000000006,8.49011,40.19114260002971,None,return,1.8534573998767883,,,,,,,,,,,,2,23,female,2023_Aug_14_1116,control,2021.2.3,59.93888629276563,
10,0.25,,,,,,,,1,0,3,1,,,,,,,,,0.25,0.15000000000000002,5.09407,43.22443880001083,None,return,2.068201099988073,,,,,,,,,,,,2,23,female,2023_Aug_14_1116,control,2021.2.3,59.93888629276563,
10,0.4,,,,,,,,1,1,4,2,,,,,,,,,0.2,0.3,10.18813,46.974460900062695,None,return,1.710436699911952,,,,,,,,,,,,2,23,female,2023_Aug_14_1116,control,2021.2.3,59.93888629276563,
10,0.1,,,,,,,,1,2,5,0,,,,,,,,,0.4,0.15000000000000008,5.09407,50.1078320001252,None,return,2.5129064000211656,,,,,,,,,,,,2,23,female,2023_Aug_14_1116,control,2021.2.3,59.93888629276563,
10,0.1,,,,,,,,2,0,6,0,,,,,,,,,0.15,0.15,5.09407,53.79100399999879,None,return,1.0216004000976682,,,,,,,,,,,,2,23,female,2023_Aug_14_1116,control,2021.2.3,59.93888629276563,
10,0.25,,,,,,,,2,1,7,1,,,,,,,,,0.3,0.2,6.79209,56.241136600030586,None,return,1.6276597001124173,,,,,,,,,,,,2,23,female,2023_Aug_14_1116,control,2021.2.3,59.93888629276563,
10,0.4,,,,,,,,2,2,8,2,,,,,,,,,0.15,0.39999999999999997,13.58418,59.541151700075716,None,return,3.0315573001280427,,,,,,,,,,,,2,23,female,2023_Aug_14_1116,control,2021.2.3,59.93888629276563,
10,0.1,,,,,,,,3,0,9,0,,,,,,,,,0.1,0.1,3.39604,64.74095969996415,None,return,1.111776600126177,,,,,,,,,,,,2,23,female,2023_Aug_14_1116,control,2021.2.3,59.93888629276563,
10,0.25,,,,,,,,3,1,10,1,,,,,,,,,0.45,0.35000000000000003,11.88616,67.02443560003303,None,return,1.5482958999928087,,,,,,,,,,,,2,23,female,2023_Aug_14_1116,control,2021.2.3,59.93888629276563,
10,0.4,,,,,,,,3,2,11,2,,,,,,,,,0.3,0.44999999999999996,15.2822,69.9911213000305,None,return,2.053484399802983,,,,,,,,,,,,2,23,female,2023_Aug_14_1116,control,2021.2.3,59.93888629276563,
10,0.4,,,,,,,,4,0,12,2,,,,,,,,,0.2,0.39999999999999997,13.58418,74.22444880008698,None,return,2.108239200199023,,,,,,,,,,,,2,23,female,2023_Aug_14_1116,control,2021.2.3,59.93888629276563,
10,0.1,,,,,,,,4,1,13,0,,,,,,,,,0.1,0.1,3.39604,78.50780700007454,None,return,2.7367961001582444,,,,,,,,,,,,2,23,female,2023_Aug_14_1116,control,2021.2.3,59.93888629276563,
10,0.25,,,,,,,,4,2,14,1,,,,,,,,,0.1,0.3,10.18813,82.67447980004363,None,return,1.8181111000012606,,,,,,,,,,,,2,23,female,2023_Aug_14_1116,control,2021.2.3,59.93888629276563,
10,0.25,,,,,,,,5,0,15,1,,,,,,,,,0.3,0.25,8.49011,86.65776260010898,None,return,1.9147663000039756,,,,,,,,,,,,2,23,female,2023_Aug_14_1116,control,2021.2.3,59.93888629276563,
10,0.4,,,,,,,,5,1,16,2,,,,,,,,,0.1,0.44999999999999996,15.2822,89.99089740007184,None,return,2.3577258000150323,,,,,,,,,,,,2,23,female,2023_Aug_14_1116,control,2021.2.3,59.93888629276563,
10,0.1,,,,,,,,5,2,17,0,,,,,,,,,0.3,0.05000000000000002,1.69802,94.5244362000376,None,return,1.9840350998565555,,,,,,,,,,,,2,23,female,2023_Aug_14_1116,control,2021.2.3,59.93888629276563,
,,,,,,,,,,,,,,,,,,,,,,,,,,,,96.5245362999849,None,c,27.920460799941793,,,,,,,,2,23,female,2023_Aug_14_1116,control,2021.2.3,59.93888629276563,
,0.4,1,11.35,99999,0.46,0.06,11.35,4,,,,,0,0,0,14,,,,,,,,,,,,,,,,num_1,0,0.38416199991479516,126.14108520001173,None,,,2,23,female,2023_Aug_14_1116,control,2021.2.3,59.93888629276563,
,0.1,2,11.19,11.51,0.16,0.06,11.35,4,,,,,0,1,1,3,,,,,,,,,,,,,,,,num_2,0,0.2701061998959631,128.1910697000567,None,,,2,23,female,2023_Aug_14_1116,control,2021.2.3,59.93888629276563,
,0.1,1,11.8,99999,0.2,0.1,11.8,3,,,,,0,2,2,0,,,,,,,,,,,,,,,,num_1,0,0.2997435999568552,130.64108079997823,None,,,2,23,female,2023_Aug_14_1116,control,2021.2.3,59.93888629276563,
,0.25,1,11.35,99999,0.31,0.06,11.35,4,,,,,0,3,3,8,,,,,,,,,,,,,,,,num_1,0,0.1533254999667406,133.10761189996265,None,,,2,23,female,2023_Aug_14_1116,control,2021.2.3,59.93888629276563,
,0.25,2,11.04,11.66,0.31,0.06,11.35,4,,,,,0,4,4,9,,,,,,,,,,,,,,,,num_2,0,0.3302621999755502,134.69095210009255,None,,,2,23,female,2023_Aug_14_1116,control,2021.2.3,59.93888629276563,
,0.4,1,11.8,99999,0.5,0.1,11.8,3,,,,,0,5,5,12,,,,,,,,,,,,,,,,num_1,0,0.24595519993454218,137.19092510011978,None,,,2,23,female,2023_Aug_14_1116,control,2021.2.3,59.93888629276563,
,0.25,1,11.8,99999,0.35,0.1,11.8,5,,,,,0,6,6,10,,,,,,,,,,,,,,,,num_1,0,0.37325880001299083,139.60734510002658,None,,,2,23,female,2023_Aug_14_1116,control,2021.2.3,59.93888629276563,
,0.4,2,10.889999999999999,11.81,0.46,0.06,11.35,4,,,,,0,7,7,15,,,,,,,,,,,,,,,,num_2,0,0.34333460009656847,141.15772409993224,None,,,2,23,female,2023_Aug_14_1116,control,2021.2.3,59.93888629276563,
,0.1,1,11.8,99999,0.2,0.1,11.8,5,,,,,0,8,8,4,,,,,,,,,,,,,,,,num_1,0,0.30707790004089475,143.67429240001366,None,,,2,23,female,2023_Aug_14_1116,control,2021.2.3,59.93888629276563,
,0.1,1,11.35,99999,0.16,0.06,11.35,4,,,,,0,9,9,2,,,,,,,,,,,,,,,,num_1,0,0.26501289987936616,145.90771840000525,None,,,2,23,female,2023_Aug_14_1116,control,2021.2.3,59.93888629276563,
,0.25,2,11.450000000000001,12.15,0.35,0.1,11.8,3,,,,,0,10,10,7,,,,,,,,,,,,,,,,num_2,0,0.33591219992376864,147.34108319994994,None,,,2,23,female,2023_Aug_14_1116,control,2021.2.3,59.93888629276563,
,0.25,2,11.450000000000001,12.15,0.35,0.1,11.8,5,,,,,0,11,11,11,,,,,,,,,,,,,,,,num_2,0,0.20739790005609393,149.35761089995503,None,,,2,23,female,2023_Aug_14_1116,control,2021.2.3,59.93888629276563,
,0.4,2,11.3,12.3,0.5,0.1,11.8,5,,,,,0,12,12,17,,,,,,,,,,,,,,,,num_2,0,0.22428880003280938,151.74072599993087,None,,,2,23,female,2023_Aug_14_1116,control,2021.2.3,59.93888629276563,
,0.4,2,11.3,12.3,0.5,0.1,11.8,3,,,,,0,13,13,13,,,,,,,,,,,,,,,,num_2,0,0.22215109993703663,153.39084500004537,None,,,2,23,female,2023_Aug_14_1116,control,2021.2.3,59.93888629276563,
,0.4,1,11.8,99999,0.5,0.1,11.8,5,,,,,0,14,14,16,,,,,,,,,,,,,,,,num_1,0,0.24821459990926087,155.54084659996442,None,,,2,23,female,2023_Aug_14_1116,control,2021.2.3,59.93888629276563,
,0.1,2,11.600000000000001,12,0.2,0.1,11.8,5,,,,,0,15,15,5,,,,,,,,,,,,,,,,num_1,0,0.26149470009841025,157.2075932000298,None,,,2,23,female,2023_Aug_14_1116,control,2021.2.3,59.93888629276563,
,0.25,1,11.8,99999,0.35,0.1,11.8,3,,,,,0,16,16,6,,,,,,,,,,,,,,,,num_1,0,0.3814304999541491,159.39092910010368,None,,,2,23,female,2023_Aug_14_1116,control,2021.2.3,59.93888629276563,
,0.1,2,11.600000000000001,12,0.2,0.1,11.8,3,,,,,0,17,17,1,,,,,,,,,,,,,,,,num_2,0,0.28445929987356067,161.4407913000323,None,,,2,23,female,2023_Aug_14_1116,control,2021.2.3,59.93888629276563,
,0.1,2,11.600000000000001,12,0.2,0.1,11.8,5,,,,,1,0,18,5,,,,,,,,,,,,,,,,num_2,0,0.24348450009711087,163.65771610010415,None,,,2,23,female,2023_Aug_14_1116,control,2021.2.3,59.93888629276563,
,0.4,2,10.889999999999999,11.81,0.46,0.06,11.35,4,,,,,1,1,19,15,,,,,,,,,,,,,,,,num_2,0,0.3810370001010597,165.82408900000155,None,,,2,23,female,2023_Aug_14_1116,control,2021.2.3,59.93888629276563,
,0.4,2,11.3,12.3,0.5,0.1,11.8,5,,,,,1,2,20,17,,,,,,,,,,,,,,,,num_2,0,0.2768264999613166,167.62436800007708,None,,,2,23,female,2023_Aug_14_1116,control,2021.2.3,59.93888629276563,
,0.4,1,11.35,99999,0.46,0.06,11.35,4,,,,,1,3,21,14,,,,,,,,,,,,,,,,num_1,0,4.354804900009185,170.0742832000833,None,,,2,23,female,2023_Aug_14_1116,control,2021.2.3,59.93888629276563,
,0.4,2,11.3,12.3,0.5,0.1,11.8,3,,,,,1,4,22,13,,,,,,,,,,,,,,,,num_2,0,0.3436926999129355,176.3574379000347,None,,,2,23,female,2023_Aug_14_1116,control,2021.2.3,59.93888629276563,
,0.1,1,11.35,99999,0.16,0.06,11.35,4,,,,,1,5,23,2,,,,,,,,,,,,,,,,num_1,0,0.28437909996137023,178.62430689996108,None,,,2,23,female,2023_Aug_14_1116,control,2021.2.3,59.93888629276563,
,0.25,2,11.04,11.66,0.31,0.06,11.35,4,,,,,1,6,24,9,,,,,,,,,,,,,,,,num_2,0,0.3230514000169933,180.07424380001612,None,,,2,23,female,2023_Aug_14_1116,control,2021.2.3,59.93888629276563,
,0.1,1,11.8,99999,0.2,0.1,11.8,3,,,,,1,7,25,0,,,,,,,,,,,,,,,,num_1,0,0.34481670008972287,182.32425919990055,None,,,2,23,female,2023_Aug_14_1116,control,2021.2.3,59.93888629276563,
,0.25,2,11.450000000000001,12.15,0.35,0.1,11.8,3,,,,,1,8,26,7,,,,,,,,,,,,,,,,num_2,0,0.48219239991158247,184.09091300005093,None,,,2,23,female,2023_Aug_14_1116,control,2021.2.3,59.93888629276563,
,0.25,1,11.8,99999,0.35,0.1,11.8,5,,,,,1,9,27,10,,,,,,,,,,,,,,,,num_1,0,3.2321234000846744,185.74074740009382,None,,,2,23,female,2023_Aug_14_1116,control,2021.2.3,59.93888629276563,
,0.25,1,11.35,99999,0.31,0.06,11.35,4,,,,,1,10,28,8,,,,,,,,,,,,,,,,num_1,0,5.106247999938205,190.89091460010968,None,,,2,23,female,2023_Aug_14_1116,control,2021.2.3,59.93888629276563,
,0.25,2,11.450000000000001,12.15,0.35,0.1,11.8,5,,,,,1,11,29,11,,,,,,,,,,,,,,,,num_2,0,0.45721720019355416,197.92421739990823,None,,,2,23,female,2023_Aug_14_1116,control,2021.2.3,59.93888629276563,
,0.1,2,11.600000000000001,12,0.2,0.1,11.8,3,,,,,1,12,30,1,,,,,,,,,,,,,,,,num_2,0,0.35545610007829964,200.05756410001777,None,,,2,23,female,2023_Aug_14_1116,control,2021.2.3,59.93888629276563,
,0.25,1,11.8,99999,0.35,0.1,11.8,3,,,,,1,13,31,6,,,,,,,,,,,,,,,,num_1,0,0.34977689990773797,202.5910171000287,None,,,2,23,female,2023_Aug_14_1116,control,2021.2.3,59.93888629276563,
,0.1,1,11.8,99999,0.2,0.1,11.8,5,,,,,1,14,32,4,,,,,,,,,,,,,,,,num_1,0,0.30131180002354085,204.6073497000616,None,,,2,23,female,2023_Aug_14_1116,control,2021.2.3,59.93888629276563,
,0.1,2,11.19,11.51,0.16,0.06,11.35,4,,,,,1,15,33,3,,,,,,,,,,,,,,,,num_2,0,0.27469999995082617,206.0743885000702,None,,,2,23,female,2023_Aug_14_1116,control,2021.2.3,59.93888629276563,
,0.4,1,11.8,99999,0.5,0.1,11.8,3,,,,,1,16,34,12,,,,,,,,,,,,,,,,num_1,0,0.23478709999471903,208.27404049993493,None,,,2,23,female,2023_Aug_14_1116,control,2021.2.3,59.93888629276563,
,0.4,1,11.8,99999,0.5,0.1,11.8,5,,,,,1,17,35,16,,,,,,,,,,,,,,,,num_1,0,0.32287140004336834,209.67420880007558,None,,,2,23,female,2023_Aug_14_1116,control,2021.2.3,59.93888629276563,
,0.25,1,11.8,99999,0.35,0.1,11.8,3,,,,,2,0,36,6,,,,,,,,,,,,,,,,num_1,0,0.23274810006842017,211.9242217000574,None,,,2,23,female,2023_Aug_14_1116,control,2021.2.3,59.93888629276563,
,0.4,1,11.8,99999,0.5,0.1,11.8,3,,,,,2,1,37,12,,,,,,,,,,,,,,,,num_2,0,0.2526604998856783,213.82434500008821,None,,,2,23,female,2023_Aug_14_1116,control,2021.2.3,59.93888629276563,
,0.25,1,11.35,99999,0.31,0.06,11.35,4,,,,,2,2,38,8,,,,,,,,,,,,,,,,num_1,0,0.23935410007834435,215.7575503999833,None,,,2,23,female,2023_Aug_14_1116,control,2021.2.3,59.93888629276563,
,0.4,2,10.889999999999999,11.81,0.46,0.06,11.35,4,,,,,2,3,39,15,,,,,,,,,,,,,,,,num_2,0,0.3827395001426339,218.1742060999386,None,,,2,23,female,2023_Aug_14_1116,control,2021.2.3,59.93888629276563,
,0.1,2,11.600000000000001,12,0.2,0.1,11.8,5,,,,,2,4,40,5,,,,,,,,,,,,,,,,num_2,0,0.4287084999959916,220.2239725999534,None,,,2,23,female,2023_Aug_14_1116,control,2021.2.3,59.93888629276563,
,0.4,2,11.3,12.3,0.5,0.1,11.8,5,,,,,2,5,41,17,,,,,,,,,,,,,,,,num_1,0,0.2487409000750631,222.3241250999272,None,,,2,23,female,2023_Aug_14_1116,control,2021.2.3,59.93888629276563,
,0.1,1,11.8,99999,0.2,0.1,11.8,3,,,,,2,6,42,0,,,,,,,,,,,,,,,,num_1,0,0.4160712000448257,223.74088670010678,None,,,2,23,female,2023_Aug_14_1116,control,2021.2.3,59.93888629276563,
,0.4,2,11.3,12.3,0.5,0.1,11.8,3,,,,,2,7,43,13,,,,,,,,,,,,,,,,num_2,0,0.34875699994154274,225.82423339993693,None,,,2,23,female,2023_Aug_14_1116,control,2021.2.3,59.93888629276563,
,0.25,2,11.450000000000001,12.15,0.35,0.1,11.8,3,,,,,2,8,44,7,,,,,,,,,,,,,,,,num_2,0,0.3601436000317335,228.340885899961,None,,,2,23,female,2023_Aug_14_1116,control,2021.2.3,59.93888629276563,
,0.4,1,11.8,99999,0.5,0.1,11.8,5,,,,,2,9,45,16,,,,,,,,,,,,,,,,num_1,0,0.3791755000129342,229.87408580002375,None,,,2,23,female,2023_Aug_14_1116,control,2021.2.3,59.93888629276563,
,0.4,1,11.35,99999,0.46,0.06,11.35,4,,,,,2,10,46,14,,,,,,,,,,,,,,,,num_1,0,0.37670419993810356,231.92429809994064,None,,,2,23,female,2023_Aug_14_1116,control,2021.2.3,59.93888629276563,
,0.1,2,11.19,11.51,0.16,0.06,11.35,4,,,,,2,11,47,3,,,,,,,,,,,,,,,,num_2,0,0.39043239993043244,233.97411229996942,None,,,2,23,female,2023_Aug_14_1116,control,2021.2.3,59.93888629276563,
,0.25,2,11.450000000000001,12.15,0.35,0.1,11.8,5,,,,,2,12,48,11,,,,,,,,,,,,,,,,num_2,0,0.419810299994424,236.0410025001038,None,,,2,23,female,2023_Aug_14_1116,control,2021.2.3,59.93888629276563,
,0.1,1,11.35,99999,0.16,0.06,11.35,4,,,,,2,13,49,2,,,,,,,,,,,,,,,,num_1,0,0.278128300094977,238.39093849994242,None,,,2,23,female,2023_Aug_14_1116,control,2021.2.3,59.93888629276563,
,0.1,2,11.600000000000001,12,0.2,0.1,11.8,3,,,,,2,14,50,1,,,,,,,,,,,,,,,,num_2,0,0.4019875000230968,240.09091809997335,None,,,2,23,female,2023_Aug_14_1116,control,2021.2.3,59.93888629276563,
,0.25,1,11.8,99999,0.35,0.1,11.8,5,,,,,2,15,51,10,,,,,,,,,,,,,,,,num_1,0,0.2965383999980986,241.92435449990444,None,,,2,23,female,2023_Aug_14_1116,control,2021.2.3,59.93888629276563,
,0.1,1,11.8,99999,0.2,0.1,11.8,5,,,,,2,16,52,4,,,,,,,,,,,,,,,,num_1,0,0.4059582999907434,244.39086059993133,None,,,2,23,female,2023_Aug_14_1116,control,2021.2.3,59.93888629276563,
,0.25,2,11.04,11.66,0.31,0.06,11.35,4,,,,,2,17,53,9,,,,,,,,,,,,,,,,num_2,0,0.28468529996462166,246.22429869999178,None,,,2,23,female,2023_Aug_14_1116,control,2021.2.3,59.93888629276563,
,0.1,2,11.600000000000001,12,0.2,0.1,11.8,5,,,,,3,0,54,5,,,,,,,,,,,,,,,,num_2,0,4.65479200007394,248.17420889995992,None,,,2,23,female,2023_Aug_14_1116,control,2021.2.3,59.93888629276563,
,0.25,1,11.8,99999,0.35,0.1,11.8,5,,,,,3,1,55,10,,,,,,,,,,,,,,,,num_1,0,0.389649499906227,254.0074225999415,None,,,2,23,female,2023_Aug_14_1116,control,2021.2.3,59.93888629276563,
,0.4,1,11.8,99999,0.5,0.1,11.8,3,,,,,3,2,56,12,,,,,,,,,,,,,,,,num_1,0,0.2744471998885274,256.0740958999377,None,,,2,23,female,2023_Aug_14_1116,control,2021.2.3,59.93888629276563,
,0.25,2,11.450000000000001,12.15,0.35,0.1,11.8,3,,,,,3,3,57,7,,,,,,,,,,,,,,,,num_2,0,0.35687340004369617,258.0241928999312,None,,,2,23,female,2023_Aug_14_1116,control,2021.2.3,59.93888629276563,
,0.4,1,11.8,99999,0.5,0.1,11.8,5,,,,,3,4,58,16,,,,,,,,,,,,,,,,num_1,0,0.3395903999917209,260.0575278000906,None,,,2,23,female,2023_Aug_14_1116,control,2021.2.3,59.93888629276563,
,0.1,1,11.8,99999,0.2,0.1,11.8,3,,,,,3,5,59,0,,,,,,,,,,,,,,,,num_1,0,0.3549085999839008,262.0741047000047,None,,,2,23,female,2023_Aug_14_1116,control,2021.2.3,59.93888629276563,
,0.25,2,11.04,11.66,0.31,0.06,11.35,4,,,,,3,6,60,9,,,,,,,,,,,,,,,,num_2,0,0.28338999999687076,263.8573930999264,None,,,2,23,female,2023_Aug_14_1116,control,2021.2.3,59.93888629276563,
,0.1,1,11.35,99999,0.16,0.06,11.35,4,,,,,3,7,61,2,,,,,,,,,,,,,,,,num_1,0,0.35327950003556907,265.30756730004214,None,,,2,23,female,2023_Aug_14_1116,control,2021.2.3,59.93888629276563,
,0.25,2,11.450000000000001,12.15,0.35,0.1,11.8,5,,,,,3,8,62,11,,,,,,,,,,,,,,,,num_2,0,0.34827899979427457,267.8408433999866,None,,,2,23,female,2023_Aug_14_1116,control,2021.2.3,59.93888629276563,
,0.1,2,11.19,11.51,0.16,0.06,11.35,4,,,,,3,9,63,3,,,,,,,,,,,,,,,,num_2,0,0.465327899903059,270.10731180012226,None,,,2,23,female,2023_Aug_14_1116,control,2021.2.3,59.93888629276563,
,0.4,2,11.3,12.3,0.5,0.1,11.8,3,,,,,3,10,64,13,,,,,,,,,,,,,,,,num_2,0,0.440013499930501,272.7408471999224,None,,,2,23,female,2023_Aug_14_1116,control,2021.2.3,59.93888629276563,
,0.4,2,10.889999999999999,11.81,0.46,0.06,11.35,4,,,,,3,11,65,15,,,,,,,,,,,,,,,,num_2,0,0.4955974000040442,275.35752240009606,None,,,2,23,female,2023_Aug_14_1116,control,2021.2.3,59.93888629276563,
,0.4,2,11.3,12.3,0.5,0.1,11.8,5,,,,,3,12,66,17,,,,,,,,,,,,,,,,num_2,0,0.3609595000743866,277.5241642999463,None,,,2,23,female,2023_Aug_14_1116,control,2021.2.3,59.93888629276563,
,0.25,1,11.35,99999,0.31,0.06,11.35,4,,,,,3,13,67,8,,,,,,,,,,,,,,,,num_1,0,0.25949160009622574,280.05761509994045,None,,,2,23,female,2023_Aug_14_1116,control,2021.2.3,59.93888629276563,
,0.1,1,11.8,99999,0.2,0.1,11.8,5,,,,,3,14,68,4,,,,,,,,,,,,,,,,num_1,0,0.34624000010080636,281.4908253001049,None,,,2,23,female,2023_Aug_14_1116,control,2021.2.3,59.93888629276563,
,0.25,1,11.8,99999,0.35,0.1,11.8,3,,,,,3,15,69,6,,,,,,,,,,,,,,,,num_1,0,0.33948599989525974,283.25747529999353,None,,,2,23,female,2023_Aug_14_1116,control,2021.2.3,59.93888629276563,
,0.4,1,11.35,99999,0.46,0.06,11.35,4,,,,,3,16,70,14,,,,,,,,,,,,,,,,num_1,0,0.35050760000012815,285.7741568000056,None,,,2,23,female,2023_Aug_14_1116,control,2021.2.3,59.93888629276563,
,0.1,2,11.600000000000001,12,0.2,0.1,11.8,3,,,,,3,17,71,1,,,,,,,,,,,,,,,,num_2,0,0.5941467999946326,287.29092229995877,None,,,2,23,female,2023_Aug_14_1116,control,2021.2.3,59.93888629276563,
,0.4,1,11.8,99999,0.5,0.1,11.8,3,,,,,4,0,72,12,,,,,,,,,,,,,,,,num_1,0,0.4393193998839706,289.5576335999649,None,,,2,23,female,2023_Aug_14_1116,control,2021.2.3,59.93888629276563,
,0.4,2,11.3,12.3,0.5,0.1,11.8,5,,,,,4,1,73,17,,,,,,,,,,,,,,,,num_2,0,0.5027175000868738,291.1742529999465,None,,,2,23,female,2023_Aug_14_1116,control,2021.2.3,59.93888629276563,
,0.4,1,11.8,99999,0.5,0.1,11.8,5,,,,,4,2,74,16,,,,,,,,,,,,,,,,num_1,0,0.32938760006800294,293.10763409989886,None,,,2,23,female,2023_Aug_14_1116,control,2021.2.3,59.93888629276563,
,0.25,1,11.35,99999,0.31,0.06,11.35,4,,,,,4,3,75,8,,,,,,,,,,,,,,,,num_1,0,0.3192803000565618,295.3576412999537,None,,,2,23,female,2023_Aug_14_1116,control,2021.2.3,59.93888629276563,
,0.4,2,11.3,12.3,0.5,0.1,11.8,3,,,,,4,4,76,13,,,,,,,,,,,,,,,,num_2,0,0.6594557999633253,296.857475399971,None,,,2,23,female,2023_Aug_14_1116,control,2021.2.3,59.93888629276563,
,0.1,1,11.35,99999,0.16,0.06,11.35,4,,,,,4,5,77,2,,,,,,,,,,,,,,,,num_1,0,0.204082400072366,299.4408728000708,None,,,2,23,female,2023_Aug_14_1116,control,2021.2.3,59.93888629276563,
,0.4,1,11.35,99999,0.46,0.06,11.35,4,,,,,4,6,78,14,,,,,,,,,,,,,,,,num_1,0,0.20264329994097352,301.0742697000969,None,,,2,23,female,2023_Aug_14_1116,control,2021.2.3,59.93888629276563,
,0.4,2,10.889999999999999,11.81,0.46,0.06,11.35,4,,,,,4,7,79,15,,,,,,,,,,,,,,,,num_2,0,0.22361980006098747,302.95736930007115,None,,,2,23,female,2023_Aug_14_1116,control,2021.2.3,59.93888629276563,
,0.25,2,11.04,11.66,0.31,0.06,11.35,4,,,,,4,8,80,9,,,,,,,,,,,,,,,,num_2,0,0.29765550000593066,305.1072794999927,None,,,2,23,female,2023_Aug_14_1116,control,2021.2.3,59.93888629276563,
,0.25,1,11.8,99999,0.35,0.1,11.8,3,,,,,4,9,81,6,,,,,,,,,,,,,,,,num_1,0,0.33692719996906817,307.3239555999171,None,,,2,23,female,2023_Aug_14_1116,control,2021.2.3,59.93888629276563,
,0.1,2,11.600000000000001,12,0.2,0.1,11.8,3,,,,,4,10,82,1,,,,,,,,,,,,,,,,num_2,0,0.38018870004452765,309.8407703000121,None,,,2,23,female,2023_Aug_14_1116,control,2021.2.3,59.93888629276563,
,0.1,1,11.8,99999,0.2,0.1,11.8,5,,,,,4,11,83,4,,,,,,,,,,,,,,,,num_1,0,0.33439570013433695,311.39075189991854,None,,,2,23,female,2023_Aug_14_1116,control,2021.2.3,59.93888629276563,
,0.1,2,11.19,11.51,0.16,0.06,11.35,4,,,,,4,12,84,3,,,,,,,,,,,,,,,,num_2,0,0.3443809000309557,313.1408490999602,None,,,2,23,female,2023_Aug_14_1116,control,2021.2.3,59.93888629276563,
,0.1,2,11.600000000000001,12,0.2,0.1,11.8,5,,,,,4,13,85,5,,,,,,,,,,,,,,,,num_2,0,0.37559229996986687,315.15747290011495,None,,,2,23,female,2023_Aug_14_1116,control,2021.2.3,59.93888629276563,
,0.25,2,11.450000000000001,12.15,0.35,0.1,11.8,5,,,,,4,14,86,11,,,,,,,,,,,,,,,,num_2,0,0.2553459999617189,316.9575634000357,None,,,2,23,female,2023_Aug_14_1116,control,2021.2.3,59.93888629276563,
,0.1,1,11.8,99999,0.2,0.1,11.8,3,,,,,4,15,87,0,,,,,,,,,,,,,,,,num_1,0,0.3380442999769002,318.89084609993733,None,,,2,23,female,2023_Aug_14_1116,control,2021.2.3,59.93888629276563,
,0.25,2,11.450000000000001,12.15,0.35,0.1,11.8,3,,,,,4,16,88,7,,,,,,,,,,,,,,,,num_2,0,0.34143030014820397,320.4075927999802,None,,,2,23,female,2023_Aug_14_1116,control,2021.2.3,59.93888629276563,
,0.25,1,11.8,99999,0.35,0.1,11.8,5,,,,,4,17,89,10,,,,,,,,,,,,,,,,num_1,0,0.2648765000049025,321.9241206999868,None,,,2,23,female,2023_Aug_14_1116,control,2021.2.3,59.93888629276563,
,0.25,1,11.35,99999,0.31,0.06,11.35,4,,,,,5,0,90,8,,,,,,,,,,,,,,,,num_1,0,0.3596278999466449,324.35745700006373,None,,,2,23,female,2023_Aug_14_1116,control,2021.2.3,59.93888629276563,
,0.4,2,11.3,12.3,0.5,0.1,11.8,3,,,,,5,1,91,13,,,,,,,,,,,,,,,,num_2,0,0.29406380001455545,326.39088409999385,None,,,2,23,female,2023_Aug_14_1116,control,2021.2.3,59.93888629276563,
,0.1,2,11.600000000000001,12,0.2,0.1,11.8,5,,,,,5,2,92,5,,,,,,,,,,,,,,,,num_2,0,0.33329580002464354,328.6074667999055,None,,,2,23,female,2023_Aug_14_1116,control,2021.2.3,59.93888629276563,
,0.4,1,11.8,99999,0.5,0.1,11.8,5,,,,,5,3,93,16,,,,,,,,,,,,,,,,num_1,0,2.877682799939066,330.6074063000269,None,,,2,23,female,2023_Aug_14_1116,control,2021.2.3,59.93888629276563,
,0.1,2,11.600000000000001,12,0.2,0.1,11.8,3,,,,,5,4,94,1,,,,,,,,,,,,,,,,num_2,0,0.26753529999405146,334.65748740010895,None,,,2,23,female,2023_Aug_14_1116,control,2021.2.3,59.93888629276563,
,0.25,1,11.8,99999,0.35,0.1,11.8,3,,,,,5,5,95,6,,,,,,,,,,,,,,,,num_1,0,0.15134180011227727,336.3575397001114,None,,,2,23,female,2023_Aug_14_1116,control,2021.2.3,59.93888629276563,
,0.25,2,11.450000000000001,12.15,0.35,0.1,11.8,5,,,,,5,6,96,11,,,,,,,,,,,,,,,,num_1,0,0.22812719992361963,338.44092520000413,None,,,2,23,female,2023_Aug_14_1116,control,2021.2.3,59.93888629276563,
,0.25,2,11.450000000000001,12.15,0.35,0.1,11.8,3,,,,,5,7,97,7,,,,,,,,,,,,,,,,num_2,0,0.37208719993941486,340.84082649997436,None,,,2,23,female,2023_Aug_14_1116,control,2021.2.3,59.93888629276563,
,0.4,1,11.35,99999,0.46,0.06,11.35,4,,,,,5,8,98,14,,,,,,,,,,,,,,,,num_1,0,0.2701868999283761,343.39066629996523,None,,,2,23,female,2023_Aug_14_1116,control,2021.2.3,59.93888629276563,
,0.25,1,11.8,99999,0.35,0.1,11.8,5,,,,,5,9,99,10,,,,,,,,,,,,,,,,num_1,0,0.25188950006850064,345.84086559992284,None,,,2,23,female,2023_Aug_14_1116,control,2021.2.3,59.93888629276563,
,0.1,1,11.8,99999,0.2,0.1,11.8,3,,,,,5,10,100,0,,,,,,,,,,,,,,,,num_1,0,0.28270319988951087,348.27417040010914,None,,,2,23,female,2023_Aug_14_1116,control,2021.2.3,59.93888629276563,
,0.25,2,11.04,11.66,0.31,0.06,11.35,4,,,,,5,11,101,9,,,,,,,,,,,,,,,,num_2,0,0.2645646999590099,350.7241974999197,None,,,2,23,female,2023_Aug_14_1116,control,2021.2.3,59.93888629276563,
,0.4,2,10.889999999999999,11.81,0.46,0.06,11.35,4,,,,,5,12,102,15,,,,,,,,,,,,,,,,num_2,0,0.31520060007460415,352.6574901000131,None,,,2,23,female,2023_Aug_14_1116,control,2021.2.3,59.93888629276563,
,0.1,1,11.8,99999,0.2,0.1,11.8,5,,,,,5,13,103,4,,,,,,,,,,,,,,,,num_1,0,0.3123034001328051,355.1408400000073,None,,,2,23,female,2023_Aug_14_1116,control,2021.2.3,59.93888629276563,
,0.1,1,11.35,99999,0.16,0.06,11.35,4,,,,,5,14,104,2,,,,,,,,,,,,,,,,num_1,0,0.23296799999661744,357.12395670008846,None,,,2,23,female,2023_Aug_14_1116,control,2021.2.3,59.93888629276563,
,0.4,1,11.8,99999,0.5,0.1,11.8,3,,,,,5,15,105,12,,,,,,,,,,,,,,,,num_1,0,0.28451670007780194,359.0242294999771,None,,,2,23,female,2023_Aug_14_1116,control,2021.2.3,59.93888629276563,
,0.1,2,11.19,11.51,0.16,0.06,11.35,4,,,,,5,16,106,3,,,,,,,,,,,,,,,,num_2,0,0.2345819000620395,361.4741287000943,None,,,2,23,female,2023_Aug_14_1116,control,2021.2.3,59.93888629276563,
,0.4,2,11.3,12.3,0.5,0.1,11.8,5,,,,,5,17,107,17,,,,,,,,,,,,,,,,num_2,0,0.30673150019720197,362.8742263999302,None,,,2,23,female,2023_Aug_14_1116,control,2021.2.3,59.93888629276563,
,,,,,,,,,,,,,,,,,,,,,,,,,,,,,,,,,,,,,363.20932530006394,None,,,,,,,,
