posx,w,amount,posx1,posx2,center_to_center,edge_to_edge,eccentricity,setsize_cobdi,first.thisRepN,first.thisTrialN,first.thisN,first.thisIndex,second.thisRepN,second.thisTrialN,second.thisN,second.thisIndex,text_2.started,text_2.stopped,key_resp_2.keys,key_resp_2.rt,starting_width_deg,response_width_degree,response_width_pixel,adjusting.started,adjusting.stopped,next.keys,next.rt,text_3.started,text_3.stopped,key_resp_3.keys,key_resp_3.rt,key_resp.keys,key_resp.corr,key_resp.rt,key_resp.started,key_resp.stopped,text.started,text.stopped,participant,age,gender,date,expName,psychopyVersion,frameRate,
,,,,,,,,,,,,,,,,,20.83073389995843,None,c,8.857406500028446,,,,,,,,,,,,,,,,,,,4,22,female,2023_Aug_14_1612,control,2021.2.3,60.07792105545516,
10,0.1,,,,,,,,0,0,0,0,,,,,,,,,0.4,0.10000000000000007,3.39604,31.403878000099212,None,return,13.72386009991169,,,,,,,,,,,,4,22,female,2023_Aug_14_1612,control,2021.2.3,60.07792105545516,
10,0.4,,,,,,,,0,1,1,2,,,,,,,,,0.45,0.15000000000000008,5.09407,47.053832800127566,None,return,10.009814999997616,,,,,,,,,,,,4,22,female,2023_Aug_14_1612,control,2021.2.3,60.07792105545516,
10,0.25,,,,,,,,0,2,2,1,,,,,,,,,0.35,0.15000000000000002,5.09407,58.736958200111985,None,return,3.0305283998604864,,,,,,,,,,,,4,22,female,2023_Aug_14_1612,control,2021.2.3,60.07792105545516,
10,0.25,,,,,,,,1,0,3,1,,,,,,,,,0.35,0.10000000000000002,3.39604,63.437259800033644,None,return,2.4743593998719007,,,,,,,,,,,,4,22,female,2023_Aug_14_1612,control,2021.2.3,60.07792105545516,
10,0.1,,,,,,,,1,1,4,0,,,,,,,,,0.3,0.05000000000000002,1.69802,67.58701580017805,None,return,2.5005662001203746,,,,,,,,,,,,4,22,female,2023_Aug_14_1612,control,2021.2.3,60.07792105545516,
10,0.4,,,,,,,,1,2,5,2,,,,,,,,,0.35,0.15000000000000002,5.09407,71.50392250018194,None,return,2.3115860000252724,,,,,,,,,,,,4,22,female,2023_Aug_14_1612,control,2021.2.3,60.07792105545516,
10,0.25,,,,,,,,2,0,6,1,,,,,,,,,0.2,0.3,10.18813,75.23692320007831,None,return,2.946882799966261,,,,,,,,,,,,4,22,female,2023_Aug_14_1612,control,2021.2.3,60.07792105545516,
10,0.1,,,,,,,,2,1,7,0,,,,,,,,,0.45,0.15000000000000008,5.09407,79.35367690003477,None,return,2.8941903999075294,,,,,,,,,,,,4,22,female,2023_Aug_14_1612,control,2021.2.3,60.07792105545516,
10,0.4,,,,,,,,2,2,8,2,,,,,,,,,0.25,0.35,11.88616,83.42045410000719,None,return,2.1229847001377493,,,,,,,,,,,,4,22,female,2023_Aug_14_1612,control,2021.2.3,60.07792105545516,
10,0.25,,,,,,,,3,0,9,1,,,,,,,,,0.2,0.15000000000000002,5.09407,87.47056409996003,None,return,3.7690141000784934,,,,,,,,,,,,4,22,female,2023_Aug_14_1612,control,2021.2.3,60.07792105545516,
10,0.4,,,,,,,,3,1,10,2,,,,,,,,,0.2,0.35,11.88616,92.4202994001098,None,return,3.3633866000454873,,,,,,,,,,,,4,22,female,2023_Aug_14_1612,control,2021.2.3,60.07792105545516,
10,0.1,,,,,,,,3,2,11,0,,,,,,,,,0.2,0.05000000000000002,1.69802,97.95389800006524,None,return,2.869711000006646,,,,,,,,,,,,4,22,female,2023_Aug_14_1612,control,2021.2.3,60.07792105545516,
10,0.4,,,,,,,,4,0,12,2,,,,,,,,,0.1,0.25,8.49011,102.75358050013892,None,return,3.4615765002090484,,,,,,,,,,,,4,22,female,2023_Aug_14_1612,control,2021.2.3,60.07792105545516,
10,0.25,,,,,,,,4,1,13,1,,,,,,,,,0.1,0.35,11.88616,108.38721440010704,None,return,2.836413700133562,,,,,,,,,,,,4,22,female,2023_Aug_14_1612,control,2021.2.3,60.07792105545516,
10,0.1,,,,,,,,4,2,14,0,,,,,,,,,0.25,0.05000000000000002,1.69802,113.1538317000959,None,return,2.0694798999466,,,,,,,,,,,,4,22,female,2023_Aug_14_1612,control,2021.2.3,60.07792105545516,
10,0.1,,,,,,,,5,0,15,0,,,,,,,,,0.35,0.10000000000000002,3.39604,116.90347010013647,None,return,2.512243499979377,,,,,,,,,,,,4,22,female,2023_Aug_14_1612,control,2021.2.3,60.07792105545516,
10,0.25,,,,,,,,5,1,16,1,,,,,,,,,0.2,0.05000000000000002,1.69802,120.83721540006809,None,return,1.7304609001148492,,,,,,,,,,,,4,22,female,2023_Aug_14_1612,control,2021.2.3,60.07792105545516,
10,0.4,,,,,,,,5,2,17,2,,,,,,,,,0.45,0.20000000000000007,6.79209,124.73722760006785,None,return,2.6465248002205044,,,,,,,,,,,,4,22,female,2023_Aug_14_1612,control,2021.2.3,60.07792105545516,
,,,,,,,,,,,,,,,,,,,,,,,,,,,,127.40393140004016,None,c,4.923759799916297,,,,,,,,4,22,female,2023_Aug_14_1612,control,2021.2.3,60.07792105545516,
,0.25,1,11.35,99999,0.31,0.06,11.35,4,,,,,0,0,0,8,,,,,,,,,,,,,,,,num_1,0,2.4796549000311643,134.52042920002714,None,,,4,22,female,2023_Aug_14_1612,control,2021.2.3,60.07792105545516,
,0.1,2,11.600000000000001,12,0.2,0.1,11.8,5,,,,,0,1,1,5,,,,,,,,,,,,,,,,num_2,0,1.26804929994978,138.42025870014913,None,,,4,22,female,2023_Aug_14_1612,control,2021.2.3,60.07792105545516,
,0.25,1,11.8,99999,0.35,0.1,11.8,3,,,,,0,2,2,6,,,,,,,,,,,,,,,,num_1,0,0.9537748999428004,141.87024369998835,None,,,4,22,female,2023_Aug_14_1612,control,2021.2.3,60.07792105545516,
,0.1,1,11.8,99999,0.2,0.1,11.8,5,,,,,0,3,3,4,,,,,,,,,,,,,,,,num_1,0,0.6880942001007497,144.50386289996095,None,,,4,22,female,2023_Aug_14_1612,control,2021.2.3,60.07792105545516,
,0.4,2,11.3,12.3,0.5,0.1,11.8,3,,,,,0,4,4,13,,,,,,,,,,,,,,,,num_2,0,0.9833628998603672,147.12040360015817,None,,,4,22,female,2023_Aug_14_1612,control,2021.2.3,60.07792105545516,
,0.4,1,11.8,99999,0.5,0.1,11.8,5,,,,,0,5,5,16,,,,,,,,,,,,,,,,num_1,0,0.7618062000256032,150.27035330003127,None,,,4,22,female,2023_Aug_14_1612,control,2021.2.3,60.07792105545516,
,0.25,1,11.8,99999,0.35,0.1,11.8,5,,,,,0,6,6,10,,,,,,,,,,,,,,,,num_1,0,0.4763027001172304,152.20363610005006,None,,,4,22,female,2023_Aug_14_1612,control,2021.2.3,60.07792105545516,
,0.1,1,11.35,99999,0.16,0.06,11.35,4,,,,,0,7,7,2,,,,,,,,,,,,,,,,num_1,0,0.4278331999666989,154.60372530017048,None,,,4,22,female,2023_Aug_14_1612,control,2021.2.3,60.07792105545516,
,0.25,2,11.04,11.66,0.31,0.06,11.35,4,,,,,0,8,8,9,,,,,,,,,,,,,,,,num_2,0,0.7483717000577599,156.20365449995734,None,,,4,22,female,2023_Aug_14_1612,control,2021.2.3,60.07792105545516,
,0.4,2,10.889999999999999,11.81,0.46,0.06,11.35,4,,,,,0,9,9,15,,,,,,,,,,,,,,,,num_2,0,0.3856687000952661,158.87026670016348,None,,,4,22,female,2023_Aug_14_1612,control,2021.2.3,60.07792105545516,
,0.1,2,11.19,11.51,0.16,0.06,11.35,4,,,,,0,10,10,3,,,,,,,,,,,,,,,,num_2,0,0.3865769000258297,160.43720549996942,None,,,4,22,female,2023_Aug_14_1612,control,2021.2.3,60.07792105545516,
,0.25,2,11.450000000000001,12.15,0.35,0.1,11.8,3,,,,,0,11,11,7,,,,,,,,,,,,,,,,num_2,0,0.43230530014261603,162.5037138001062,None,,,4,22,female,2023_Aug_14_1612,control,2021.2.3,60.07792105545516,
,0.4,2,11.3,12.3,0.5,0.1,11.8,5,,,,,0,12,12,17,,,,,,,,,,,,,,,,num_2,0,0.45630190009251237,165.1037571001798,None,,,4,22,female,2023_Aug_14_1612,control,2021.2.3,60.07792105545516,
,0.1,2,11.600000000000001,12,0.2,0.1,11.8,3,,,,,0,13,13,1,,,,,,,,,,,,,,,,num_2,0,0.6468525000382215,166.7370963001158,None,,,4,22,female,2023_Aug_14_1612,control,2021.2.3,60.07792105545516,
,0.25,2,11.450000000000001,12.15,0.35,0.1,11.8,5,,,,,0,14,14,11,,,,,,,,,,,,,,,,num_2,0,0.541730800177902,168.55384439998306,None,,,4,22,female,2023_Aug_14_1612,control,2021.2.3,60.07792105545516,
,0.4,1,11.8,99999,0.5,0.1,11.8,3,,,,,0,15,15,12,,,,,,,,,,,,,,,,num_1,0,0.44848309992812574,170.52025540010072,None,,,4,22,female,2023_Aug_14_1612,control,2021.2.3,60.07792105545516,
,0.4,1,11.35,99999,0.46,0.06,11.35,4,,,,,0,16,16,14,,,,,,,,,,,,,,,,num_1,0,0.3946907001081854,172.63706840015948,None,,,4,22,female,2023_Aug_14_1612,control,2021.2.3,60.07792105545516,
,0.1,1,11.8,99999,0.2,0.1,11.8,3,,,,,0,17,17,0,,,,,,,,,,,,,,,,num_1,0,0.43470480013638735,174.4538764001336,None,,,4,22,female,2023_Aug_14_1612,control,2021.2.3,60.07792105545516,
,0.1,1,11.35,99999,0.16,0.06,11.35,4,,,,,1,0,18,2,,,,,,,,,,,,,,,,num_1,0,0.3375222000759095,176.07033030013554,None,,,4,22,female,2023_Aug_14_1612,control,2021.2.3,60.07792105545516,
,0.4,2,11.3,12.3,0.5,0.1,11.8,5,,,,,1,1,19,17,,,,,,,,,,,,,,,,num_2,0,0.3889239998534322,177.5868820999749,None,,,4,22,female,2023_Aug_14_1612,control,2021.2.3,60.07792105545516,
,0.25,2,11.450000000000001,12.15,0.35,0.1,11.8,5,,,,,1,2,20,11,,,,,,,,,,,,,,,,num_2,0,0.2785757998935878,179.15369960013777,None,,,4,22,female,2023_Aug_14_1612,control,2021.2.3,60.07792105545516,
,0.25,1,11.35,99999,0.31,0.06,11.35,4,,,,,1,3,21,8,,,,,,,,,,,,,,,,num_1,0,0.49471410014666617,181.35349870007485,None,,,4,22,female,2023_Aug_14_1612,control,2021.2.3,60.07792105545516,
,0.4,1,11.8,99999,0.5,0.1,11.8,5,,,,,1,4,22,16,,,,,,,,,,,,,,,,num_1,0,0.48166200006380677,183.27038340014406,None,,,4,22,female,2023_Aug_14_1612,control,2021.2.3,60.07792105545516,
,0.25,1,11.8,99999,0.35,0.1,11.8,3,,,,,1,5,23,6,,,,,,,,,,,,,,,,num_1,0,0.36856239987537265,184.9203664001543,None,,,4,22,female,2023_Aug_14_1612,control,2021.2.3,60.07792105545516,
,0.1,2,11.600000000000001,12,0.2,0.1,11.8,5,,,,,1,6,24,5,,,,,,,,,,,,,,,,num_2,0,0.445815899875015,186.9535866000224,None,,,4,22,female,2023_Aug_14_1612,control,2021.2.3,60.07792105545516,
,0.25,1,11.8,99999,0.35,0.1,11.8,5,,,,,1,7,25,10,,,,,,,,,,,,,,,,num_1,0,0.42170619987882674,189.57023219997063,None,,,4,22,female,2023_Aug_14_1612,control,2021.2.3,60.07792105545516,
,0.4,1,11.35,99999,0.46,0.06,11.35,4,,,,,1,8,26,14,,,,,,,,,,,,,,,,num_1,0,0.3015566000249237,192.17021919996478,None,,,4,22,female,2023_Aug_14_1612,control,2021.2.3,60.07792105545516,
,0.4,1,11.8,99999,0.5,0.1,11.8,3,,,,,1,9,27,12,,,,,,,,,,,,,,,,num_1,0,0.31880349991843104,194.13687860011123,None,,,4,22,female,2023_Aug_14_1612,control,2021.2.3,60.07792105545516,
,0.1,1,11.8,99999,0.2,0.1,11.8,3,,,,,1,10,28,0,,,,,,,,,,,,,,,,num_1,0,0.2679675000254065,196.6203901001718,None,,,4,22,female,2023_Aug_14_1612,control,2021.2.3,60.07792105545516,
,0.1,2,11.600000000000001,12,0.2,0.1,11.8,3,,,,,1,11,29,1,,,,,,,,,,,,,,,,num_2,0,0.6250977001618594,198.070398400072,None,,,4,22,female,2023_Aug_14_1612,control,2021.2.3,60.07792105545516,
,0.1,2,11.19,11.51,0.16,0.06,11.35,4,,,,,1,12,30,3,,,,,,,,,,,,,,,,num_2,0,0.2890155999921262,200.87036980013363,None,,,4,22,female,2023_Aug_14_1612,control,2021.2.3,60.07792105545516,
,0.1,1,11.8,99999,0.2,0.1,11.8,5,,,,,1,13,31,4,,,,,,,,,,,,,,,,num_1,0,0.39935239986516535,203.33692710008472,None,,,4,22,female,2023_Aug_14_1612,control,2021.2.3,60.07792105545516,
,0.25,2,11.450000000000001,12.15,0.35,0.1,11.8,3,,,,,1,14,32,7,,,,,,,,,,,,,,,,num_2,0,0.3320658002048731,205.40383010008372,None,,,4,22,female,2023_Aug_14_1612,control,2021.2.3,60.07792105545516,
,0.4,2,11.3,12.3,0.5,0.1,11.8,3,,,,,1,15,33,13,,,,,,,,,,,,,,,,num_2,0,0.18457000004127622,207.9034907000605,None,,,4,22,female,2023_Aug_14_1612,control,2021.2.3,60.07792105545516,
,0.4,2,10.889999999999999,11.81,0.46,0.06,11.35,4,,,,,1,16,34,15,,,,,,,,,,,,,,,,num_2,0,0.28036360000260174,209.50382290012203,None,,,4,22,female,2023_Aug_14_1612,control,2021.2.3,60.07792105545516,
,0.25,2,11.04,11.66,0.31,0.06,11.35,4,,,,,1,17,35,9,,,,,,,,,,,,,,,,num_2,0,0.2784078000113368,211.9534593001008,None,,,4,22,female,2023_Aug_14_1612,control,2021.2.3,60.07792105545516,
,0.1,1,11.35,99999,0.16,0.06,11.35,4,,,,,2,0,36,2,,,,,,,,,,,,,,,,num_1,0,0.4445543000474572,213.4034439001698,None,,,4,22,female,2023_Aug_14_1612,control,2021.2.3,60.07792105545516,
,0.4,1,11.8,99999,0.5,0.1,11.8,5,,,,,2,1,37,16,,,,,,,,,,,,,,,,num_1,0,0.37179769994691014,216.0200813000556,None,,,4,22,female,2023_Aug_14_1612,control,2021.2.3,60.07792105545516,
,0.25,1,11.35,99999,0.31,0.06,11.35,4,,,,,2,2,38,8,,,,,,,,,,,,,,,,num_1,0,0.2732689999975264,218.07051350013353,None,,,4,22,female,2023_Aug_14_1612,control,2021.2.3,60.07792105545516,
,0.4,1,11.8,99999,0.5,0.1,11.8,3,,,,,2,3,39,12,,,,,,,,,,,,,,,,num_1,0,0.2658973000943661,220.27013200009242,None,,,4,22,female,2023_Aug_14_1612,control,2021.2.3,60.07792105545516,
,0.1,1,11.8,99999,0.2,0.1,11.8,3,,,,,2,4,40,0,,,,,,,,,,,,,,,,num_1,0,0.24640040006488562,221.95359500008635,None,,,4,22,female,2023_Aug_14_1612,control,2021.2.3,60.07792105545516,
,0.1,2,11.600000000000001,12,0.2,0.1,11.8,3,,,,,2,5,41,1,,,,,,,,,,,,,,,,num_2,0,0.5469170000869781,223.62048540008254,None,,,4,22,female,2023_Aug_14_1612,control,2021.2.3,60.07792105545516,
,0.4,2,10.889999999999999,11.81,0.46,0.06,11.35,4,,,,,2,6,42,15,,,,,,,,,,,,,,,,num_2,0,0.3849188999738544,226.08702530013397,None,,,4,22,female,2023_Aug_14_1612,control,2021.2.3,60.07792105545516,
,0.4,2,11.3,12.3,0.5,0.1,11.8,3,,,,,2,7,43,13,,,,,,,,,,,,,,,,num_2,0,0.25159460003487766,228.6369229000993,None,,,4,22,female,2023_Aug_14_1612,control,2021.2.3,60.07792105545516,
,0.1,2,11.600000000000001,12,0.2,0.1,11.8,5,,,,,2,8,44,5,,,,,,,,,,,,,,,,num_2,0,0.2734669998753816,230.07024400006048,None,,,4,22,female,2023_Aug_14_1612,control,2021.2.3,60.07792105545516,
,0.1,1,11.8,99999,0.2,0.1,11.8,5,,,,,2,9,45,4,,,,,,,,,,,,,,,,num_2,0,0.20517690014094114,231.77033179998398,None,,,4,22,female,2023_Aug_14_1612,control,2021.2.3,60.07792105545516,
,0.4,2,11.3,12.3,0.5,0.1,11.8,5,,,,,2,10,46,17,,,,,,,,,,,,,,,,num_2,0,0.7221170999109745,233.65343090007082,None,,,4,22,female,2023_Aug_14_1612,control,2021.2.3,60.07792105545516,
,0.25,1,11.8,99999,0.35,0.1,11.8,3,,,,,2,11,47,6,,,,,,,,,,,,,,,,num_1,0,0.34954369999468327,236.5537847999949,None,,,4,22,female,2023_Aug_14_1612,control,2021.2.3,60.07792105545516,
,0.25,2,11.450000000000001,12.15,0.35,0.1,11.8,3,,,,,2,12,48,7,,,,,,,,,,,,,,,,num_2,0,0.4551878001075238,238.32029450009577,None,,,4,22,female,2023_Aug_14_1612,control,2021.2.3,60.07792105545516,
,0.25,1,11.8,99999,0.35,0.1,11.8,5,,,,,2,13,49,10,,,,,,,,,,,,,,,,num_1,0,0.4944920998532325,240.9535708001349,None,,,4,22,female,2023_Aug_14_1612,control,2021.2.3,60.07792105545516,
,0.4,1,11.35,99999,0.46,0.06,11.35,4,,,,,2,14,50,14,,,,,,,,,,,,,,,,num_1,0,0.3975794999860227,243.3703634000849,None,,,4,22,female,2023_Aug_14_1612,control,2021.2.3,60.07792105545516,
,0.25,2,11.450000000000001,12.15,0.35,0.1,11.8,5,,,,,2,15,51,11,,,,,,,,,,,,,,,,num_2,0,0.5387568001169711,245.43700730009004,None,,,4,22,female,2023_Aug_14_1612,control,2021.2.3,60.07792105545516,
,0.25,2,11.04,11.66,0.31,0.06,11.35,4,,,,,2,16,52,9,,,,,,,,,,,,,,,,num_2,0,0.4122522999532521,247.40375990001485,None,,,4,22,female,2023_Aug_14_1612,control,2021.2.3,60.07792105545516,
,0.1,2,11.19,11.51,0.16,0.06,11.35,4,,,,,2,17,53,3,,,,,,,,,,,,,,,,num_2,0,0.495135199977085,249.73692620010115,None,,,4,22,female,2023_Aug_14_1612,control,2021.2.3,60.07792105545516,
,0.25,1,11.8,99999,0.35,0.1,11.8,5,,,,,3,0,54,10,,,,,,,,,,,,,,,,num_1,0,0.44641679991036654,252.1536061000079,None,,,4,22,female,2023_Aug_14_1612,control,2021.2.3,60.07792105545516,
,0.25,2,11.450000000000001,12.15,0.35,0.1,11.8,3,,,,,3,1,55,7,,,,,,,,,,,,,,,,num_2,0,0.42576179979369044,254.2702937000431,None,,,4,22,female,2023_Aug_14_1612,control,2021.2.3,60.07792105545516,
,0.25,1,11.8,99999,0.35,0.1,11.8,3,,,,,3,2,56,6,,,,,,,,,,,,,,,,num_1,0,0.3734735001344234,256.3701836001128,None,,,4,22,female,2023_Aug_14_1612,control,2021.2.3,60.07792105545516,
,0.25,1,11.35,99999,0.31,0.06,11.35,4,,,,,3,3,57,8,,,,,,,,,,,,,,,,num_1,0,0.34979779995046556,258.17006120015867,None,,,4,22,female,2023_Aug_14_1612,control,2021.2.3,60.07792105545516,
,0.25,2,11.04,11.66,0.31,0.06,11.35,4,,,,,3,4,58,9,,,,,,,,,,,,,,,,num_2,0,0.4346386999823153,260.4369328999892,None,,,4,22,female,2023_Aug_14_1612,control,2021.2.3,60.07792105545516,
,0.4,1,11.8,99999,0.5,0.1,11.8,5,,,,,3,5,59,16,,,,,,,,,,,,,,,,num_1,0,0.4362903998699039,262.78711799997836,None,,,4,22,female,2023_Aug_14_1612,control,2021.2.3,60.07792105545516,
,0.1,1,11.8,99999,0.2,0.1,11.8,3,,,,,3,6,60,0,,,,,,,,,,,,,,,,num_1,0,0.3743125998880714,265.15352699998766,None,,,4,22,female,2023_Aug_14_1612,control,2021.2.3,60.07792105545516,
,0.4,1,11.35,99999,0.46,0.06,11.35,4,,,,,3,7,61,14,,,,,,,,,,,,,,,,num_1,0,0.47404010011814535,267.453683400061,None,,,4,22,female,2023_Aug_14_1612,control,2021.2.3,60.07792105545516,
,0.1,2,11.600000000000001,12,0.2,0.1,11.8,5,,,,,3,8,62,5,,,,,,,,,,,,,,,,num_2,0,0.38427650020457804,270.1037161999848,None,,,4,22,female,2023_Aug_14_1612,control,2021.2.3,60.07792105545516,
,0.4,2,10.889999999999999,11.81,0.46,0.06,11.35,4,,,,,3,9,63,15,,,,,,,,,,,,,,,,num_2,0,0.30776929995045066,272.4202102001291,None,,,4,22,female,2023_Aug_14_1612,control,2021.2.3,60.07792105545516,
,0.4,2,11.3,12.3,0.5,0.1,11.8,5,,,,,3,10,64,17,,,,,,,,,,,,,,,,num_2,0,0.22415829985402524,274.90364939998835,None,,,4,22,female,2023_Aug_14_1612,control,2021.2.3,60.07792105545516,
,0.1,2,11.600000000000001,12,0.2,0.1,11.8,3,,,,,3,11,65,1,,,,,,,,,,,,,,,,num_2,0,0.4160931999795139,277.3036537000444,None,,,4,22,female,2023_Aug_14_1612,control,2021.2.3,60.07792105545516,
,0.4,1,11.8,99999,0.5,0.1,11.8,3,,,,,3,12,66,12,,,,,,,,,,,,,,,,num_1,0,0.5521024998743087,279.13696880009957,None,,,4,22,female,2023_Aug_14_1612,control,2021.2.3,60.07792105545516,
,0.1,1,11.8,99999,0.2,0.1,11.8,5,,,,,3,13,67,4,,,,,,,,,,,,,,,,num_1,0,0.3553899999242276,281.62036020006053,None,,,4,22,female,2023_Aug_14_1612,control,2021.2.3,60.07792105545516,
,0.1,2,11.19,11.51,0.16,0.06,11.35,4,,,,,3,14,68,3,,,,,,,,,,,,,,,,num_2,0,0.8291635001078248,283.40356770018116,None,,,4,22,female,2023_Aug_14_1612,control,2021.2.3,60.07792105545516,
,0.25,2,11.450000000000001,12.15,0.35,0.1,11.8,5,,,,,3,15,69,11,,,,,,,,,,,,,,,,num_2,0,0.3278318999800831,285.90365390013903,None,,,4,22,female,2023_Aug_14_1612,control,2021.2.3,60.07792105545516,
,0.1,1,11.35,99999,0.16,0.06,11.35,4,,,,,3,16,70,2,,,,,,,,,,,,,,,,num_1,0,0.4089246999938041,287.9036102001555,None,,,4,22,female,2023_Aug_14_1612,control,2021.2.3,60.07792105545516,
,0.4,2,11.3,12.3,0.5,0.1,11.8,3,,,,,3,17,71,13,,,,,,,,,,,,,,,,num_2,0,0.37295840005390346,289.986973100109,None,,,4,22,female,2023_Aug_14_1612,control,2021.2.3,60.07792105545516,
,0.1,1,11.8,99999,0.2,0.1,11.8,5,,,,,4,0,72,4,,,,,,,,,,,,,,,,num_1,0,0.4572366999927908,292.28690099995583,None,,,4,22,female,2023_Aug_14_1612,control,2021.2.3,60.07792105545516,
,0.4,2,11.3,12.3,0.5,0.1,11.8,3,,,,,4,1,73,13,,,,,,,,,,,,,,,,num_2,0,0.5214042000006884,294.67032020003535,None,,,4,22,female,2023_Aug_14_1612,control,2021.2.3,60.07792105545516,
,0.25,1,11.35,99999,0.31,0.06,11.35,4,,,,,4,2,74,8,,,,,,,,,,,,,,,,num_1,0,0.3637170000001788,296.62018320010975,None,,,4,22,female,2023_Aug_14_1612,control,2021.2.3,60.07792105545516,
,0.4,1,11.8,99999,0.5,0.1,11.8,5,,,,,4,3,75,16,,,,,,,,,,,,,,,,num_1,0,0.2349350000731647,298.65353590017185,None,,,4,22,female,2023_Aug_14_1612,control,2021.2.3,60.07792105545516,
,0.4,1,11.8,99999,0.5,0.1,11.8,3,,,,,4,4,76,12,,,,,,,,,,,,,,,,num_1,0,0.3375760999042541,300.0701123001054,None,,,4,22,female,2023_Aug_14_1612,control,2021.2.3,60.07792105545516,
,0.4,1,11.35,99999,0.46,0.06,11.35,4,,,,,4,5,77,14,,,,,,,,,,,,,,,,num_1,0,0.2630179999396205,302.3369080000557,None,,,4,22,female,2023_Aug_14_1612,control,2021.2.3,60.07792105545516,
,0.25,2,11.04,11.66,0.31,0.06,11.35,4,,,,,4,6,78,9,,,,,,,,,,,,,,,,num_1,0,0.18541779997758567,304.27031400008127,None,,,4,22,female,2023_Aug_14_1612,control,2021.2.3,60.07792105545516,
,0.25,2,11.450000000000001,12.15,0.35,0.1,11.8,5,,,,,4,7,79,11,,,,,,,,,,,,,,,,num_2,0,0.3297057000454515,305.8871092000045,None,,,4,22,female,2023_Aug_14_1612,control,2021.2.3,60.07792105545516,
,0.4,2,11.3,12.3,0.5,0.1,11.8,5,,,,,4,8,80,17,,,,,,,,,,,,,,,,num_2,0,0.37702419981360435,307.8869052999653,None,,,4,22,female,2023_Aug_14_1612,control,2021.2.3,60.07792105545516,
,0.1,1,11.35,99999,0.16,0.06,11.35,4,,,,,4,9,81,2,,,,,,,,,,,,,,,,num_1,0,0.32733960007317364,309.93691060016863,None,,,4,22,female,2023_Aug_14_1612,control,2021.2.3,60.07792105545516,
,0.1,2,11.600000000000001,12,0.2,0.1,11.8,5,,,,,4,10,82,5,,,,,,,,,,,,,,,,num_2,0,0.4808904000092298,311.6869052001275,None,,,4,22,female,2023_Aug_14_1612,control,2021.2.3,60.07792105545516,
,0.1,2,11.19,11.51,0.16,0.06,11.35,4,,,,,4,11,83,3,,,,,,,,,,,,,,,,num_2,0,0.4049134999513626,313.5869971001521,None,,,4,22,female,2023_Aug_14_1612,control,2021.2.3,60.07792105545516,
,0.25,2,11.450000000000001,12.15,0.35,0.1,11.8,3,,,,,4,12,84,7,,,,,,,,,,,,,,,,num_2,0,0.3899612999521196,315.1702319001779,None,,,4,22,female,2023_Aug_14_1612,control,2021.2.3,60.07792105545516,
,0.25,1,11.8,99999,0.35,0.1,11.8,5,,,,,4,13,85,10,,,,,,,,,,,,,,,,num_1,0,8.323147299932316,317.2369427001104,None,,,4,22,female,2023_Aug_14_1612,control,2021.2.3,60.07792105545516,
,0.1,1,11.8,99999,0.2,0.1,11.8,3,,,,,4,14,86,0,,,,,,,,,,,,,,,,num_1,0,0.6787588000297546,326.736795200035,None,,,4,22,female,2023_Aug_14_1612,control,2021.2.3,60.07792105545516,
,0.1,2,11.600000000000001,12,0.2,0.1,11.8,3,,,,,4,15,87,1,,,,,,,,,,,,,,,,num_2,0,0.5849695999640971,329.0868118000217,None,,,4,22,female,2023_Aug_14_1612,control,2021.2.3,60.07792105545516,
,0.25,1,11.8,99999,0.35,0.1,11.8,3,,,,,4,16,88,6,,,,,,,,,,,,,,,,num_1,0,0.4993820998352021,330.836988999974,None,,,4,22,female,2023_Aug_14_1612,control,2021.2.3,60.07792105545516,
,0.4,2,10.889999999999999,11.81,0.46,0.06,11.35,4,,,,,4,17,89,15,,,,,,,,,,,,,,,,num_2,0,0.43835369986481965,332.7535254000686,None,,,4,22,female,2023_Aug_14_1612,control,2021.2.3,60.07792105545516,
,0.4,2,11.3,12.3,0.5,0.1,11.8,5,,,,,5,0,90,17,,,,,,,,,,,,,,,,num_2,0,0.3896435000933707,334.3702521000523,None,,,4,22,female,2023_Aug_14_1612,control,2021.2.3,60.07792105545516,
,0.4,1,11.8,99999,0.5,0.1,11.8,5,,,,,5,1,91,16,,,,,,,,,,,,,,,,num_1,0,0.38681249995715916,336.43693770002574,None,,,4,22,female,2023_Aug_14_1612,control,2021.2.3,60.07792105545516,
,0.1,2,11.600000000000001,12,0.2,0.1,11.8,3,,,,,5,2,92,1,,,,,,,,,,,,,,,,num_2,0,0.6023464999161661,338.25344460015185,None,,,4,22,female,2023_Aug_14_1612,control,2021.2.3,60.07792105545516,
,0.1,2,11.600000000000001,12,0.2,0.1,11.8,5,,,,,5,3,93,5,,,,,,,,,,,,,,,,num_2,0,0.39452519989572465,341.0369182000868,None,,,4,22,female,2023_Aug_14_1612,control,2021.2.3,60.07792105545516,
,0.25,2,11.450000000000001,12.15,0.35,0.1,11.8,5,,,,,5,4,94,11,,,,,,,,,,,,,,,,num_2,0,0.4983595998492092,342.85359960002825,None,,,4,22,female,2023_Aug_14_1612,control,2021.2.3,60.07792105545516,
,0.1,1,11.8,99999,0.2,0.1,11.8,5,,,,,5,5,95,4,,,,,,,,,,,,,,,,num_1,0,0.4332072001416236,345.2702509001829,None,,,4,22,female,2023_Aug_14_1612,control,2021.2.3,60.07792105545516,
,0.4,2,10.889999999999999,11.81,0.46,0.06,11.35,4,,,,,5,6,96,15,,,,,,,,,,,,,,,,num_2,0,0.42345190001651645,347.1202767000068,None,,,4,22,female,2023_Aug_14_1612,control,2021.2.3,60.07792105545516,
,0.1,1,11.35,99999,0.16,0.06,11.35,4,,,,,5,7,97,2,,,,,,,,,,,,,,,,num_2,0,0.46172669995576143,348.97013509995304,None,,,4,22,female,2023_Aug_14_1612,control,2021.2.3,60.07792105545516,
,0.1,2,11.19,11.51,0.16,0.06,11.35,4,,,,,5,8,98,3,,,,,,,,,,,,,,,,num_2,0,0.35575230000540614,351.6037509001326,None,,,4,22,female,2023_Aug_14_1612,control,2021.2.3,60.07792105545516,
,0.4,1,11.8,99999,0.5,0.1,11.8,3,,,,,5,9,99,12,,,,,,,,,,,,,,,,num_1,0,0.3967106998898089,353.38697140011936,None,,,4,22,female,2023_Aug_14_1612,control,2021.2.3,60.07792105545516,
,0.25,2,11.04,11.66,0.31,0.06,11.35,4,,,,,5,10,100,9,,,,,,,,,,,,,,,,num_2,0,0.5643458000849932,355.2035392001271,None,,,4,22,female,2023_Aug_14_1612,control,2021.2.3,60.07792105545516,
,0.1,1,11.8,99999,0.2,0.1,11.8,3,,,,,5,11,101,0,,,,,,,,,,,,,,,,num_1,0,0.3404959999024868,357.1869775999803,None,,,4,22,female,2023_Aug_14_1612,control,2021.2.3,60.07792105545516,
,0.4,1,11.35,99999,0.46,0.06,11.35,4,,,,,5,12,102,14,,,,,,,,,,,,,,,,num_1,0,0.5123704001307487,359.70340140000917,None,,,4,22,female,2023_Aug_14_1612,control,2021.2.3,60.07792105545516,
,0.25,1,11.8,99999,0.35,0.1,11.8,3,,,,,5,13,103,6,,,,,,,,,,,,,,,,num_1,0,0.31331769982352853,361.8866767999716,None,,,4,22,female,2023_Aug_14_1612,control,2021.2.3,60.07792105545516,
,0.4,2,11.3,12.3,0.5,0.1,11.8,3,,,,,5,14,104,13,,,,,,,,,,,,,,,,num_2,0,0.4193791998550296,363.6203658001032,None,,,4,22,female,2023_Aug_14_1612,control,2021.2.3,60.07792105545516,
,0.25,1,11.35,99999,0.31,0.06,11.35,4,,,,,5,15,105,8,,,,,,,,,,,,,,,,num_1,0,0.35188410012051463,365.720200400101,None,,,4,22,female,2023_Aug_14_1612,control,2021.2.3,60.07792105545516,
,0.25,2,11.450000000000001,12.15,0.35,0.1,11.8,3,,,,,5,16,106,7,,,,,,,,,,,,,,,,num_2,0,0.49827670003287494,367.253620200092,None,,,4,22,female,2023_Aug_14_1612,control,2021.2.3,60.07792105545516,
,0.25,1,11.8,99999,0.35,0.1,11.8,5,,,,,5,17,107,10,,,,,,,,,,,,,,,,num_1,0,0.45977650000713766,369.42012440017425,None,,,4,22,female,2023_Aug_14_1612,control,2021.2.3,60.07792105545516,
,,,,,,,,,,,,,,,,,,,,,,,,,,,,,,,,,,,,,369.9041425001342,None,,,,,,,,
