posx,w,amount,posx1,posx2,center_to_center,edge_to_edge,eccentricity,setsize_cobdi,first.thisRepN,first.thisTrialN,first.thisN,first.thisIndex,second.thisRepN,second.thisTrialN,second.thisN,second.thisIndex,text_2.started,text_2.stopped,key_resp_2.keys,key_resp_2.rt,starting_width_deg,response_width_degree,response_width_pixel,adjusting.started,adjusting.stopped,next.keys,next.rt,text_3.started,text_3.stopped,key_resp_3.keys,key_resp_3.rt,key_resp.keys,key_resp.corr,key_resp.rt,key_resp.started,key_resp.stopped,text.started,text.stopped,participant,age,gender,date,expName,psychopyVersion,frameRate,
,,,,,,,,,,,,,,,,,11.075602299999446,None,c,18.25804669992067,,,,,,,,,,,,,,,,,,,6,21,female,2023_Aug_15_1346,control,2021.2.3,60.071497038770836,
10,0.1,,,,,,,,0,0,0,0,,,,,,,,,0.3,0.05000000000000002,1.69802,31.557930799899623,None,return,3.1835773999337107,,,,,,,,,,,,6,21,female,2023_Aug_15_1346,control,2021.2.3,60.071497038770836,
10,0.4,,,,,,,,0,1,1,2,,,,,,,,,0.4,0.15000000000000008,5.09407,36.65772769995965,None,return,4.323565399972722,,,,,,,,,,,,6,21,female,2023_Aug_15_1346,control,2021.2.3,60.071497038770836,
10,0.25,,,,,,,,0,2,2,1,,,,,,,,,0.1,0.3,10.18813,42.1577202999033,None,return,2.119490999961272,,,,,,,,,,,,6,21,female,2023_Aug_15_1346,control,2021.2.3,60.071497038770836,
10,0.4,,,,,,,,1,0,3,2,,,,,,,,,0.15,0.3,10.18813,45.95789479999803,None,return,2.8154665001202375,,,,,,,,,,,,6,21,female,2023_Aug_15_1346,control,2021.2.3,60.071497038770836,
10,0.1,,,,,,,,1,1,4,0,,,,,,,,,0.1,0.15000000000000002,5.09407,50.94125819997862,None,return,2.807924299966544,,,,,,,,,,,,6,21,female,2023_Aug_15_1346,control,2021.2.3,60.071497038770836,
10,0.25,,,,,,,,1,2,5,1,,,,,,,,,0.2,0.35,11.88616,55.92458069999702,None,return,2.00070480001159,,,,,,,,,,,,6,21,female,2023_Aug_15_1346,control,2021.2.3,60.071497038770836,
10,0.25,,,,,,,,2,0,6,1,,,,,,,,,0.25,0.15000000000000002,5.09407,59.591234899824485,None,return,3.326068199938163,,,,,,,,,,,,6,21,female,2023_Aug_15_1346,control,2021.2.3,60.071497038770836,
10,0.1,,,,,,,,2,1,7,0,,,,,,,,,0.1,0.15000000000000002,5.09407,64.59123729984276,None,return,2.1978815998882055,,,,,,,,,,,,6,21,female,2023_Aug_15_1346,control,2021.2.3,60.071497038770836,
10,0.4,,,,,,,,2,2,8,2,,,,,,,,,0.1,0.15000000000000002,5.09407,68.20777720003389,None,return,2.4054543001111597,,,,,,,,,,,,6,21,female,2023_Aug_15_1346,control,2021.2.3,60.071497038770836,
10,0.1,,,,,,,,3,0,9,0,,,,,,,,,0.2,0.10000000000000002,3.39604,72.54123039986007,None,return,2.2479200998786837,,,,,,,,,,,,6,21,female,2023_Aug_15_1346,control,2021.2.3,60.071497038770836,
10,0.25,,,,,,,,3,1,10,1,,,,,,,,,0.45,0.15000000000000008,5.09407,76.95770150003955,None,return,4.711864700075239,,,,,,,,,,,,6,21,female,2023_Aug_15_1346,control,2021.2.3,60.071497038770836,
10,0.4,,,,,,,,3,2,11,2,,,,,,,,,0.15,0.2,6.79209,83.8412120998837,None,return,3.0283838000614196,,,,,,,,,,,,6,21,female,2023_Aug_15_1346,control,2021.2.3,60.071497038770836,
10,0.25,,,,,,,,4,0,12,1,,,,,,,,,0.35,0.2,6.79209,88.54122060001828,None,return,3.8642730000428855,,,,,,,,,,,,6,21,female,2023_Aug_15_1346,control,2021.2.3,60.071497038770836,
10,0.1,,,,,,,,4,1,13,0,,,,,,,,,0.4,0.15000000000000008,5.09407,94.32454639999196,None,return,2.72081739990972,,,,,,,,,,,,6,21,female,2023_Aug_15_1346,control,2021.2.3,60.071497038770836,
10,0.4,,,,,,,,4,2,14,2,,,,,,,,,0.35,0.15000000000000002,5.09407,99.22435209993273,None,return,2.029138900106773,,,,,,,,,,,,6,21,female,2023_Aug_15_1346,control,2021.2.3,60.071497038770836,
10,0.4,,,,,,,,5,0,15,2,,,,,,,,,0.15,0.25,8.49011,102.92454060004093,None,return,2.088594799861312,,,,,,,,,,,,6,21,female,2023_Aug_15_1346,control,2021.2.3,60.071497038770836,
10,0.1,,,,,,,,5,1,16,0,,,,,,,,,0.15,0.2,6.79209,106.69116269983351,None,return,2.098164499970153,,,,,,,,,,,,6,21,female,2023_Aug_15_1346,control,2021.2.3,60.071497038770836,
10,0.25,,,,,,,,5,2,17,1,,,,,,,,,0.15,0.25,8.49011,110.70782459992915,None,return,1.665448599960655,,,,,,,,,,,,6,21,female,2023_Aug_15_1346,control,2021.2.3,60.071497038770836,
,,,,,,,,,,,,,,,,,,,,,,,,,,,,112.39123239996843,None,c,1.6466500998940319,,,,,,,,6,21,female,2023_Aug_15_1346,control,2021.2.3,60.071497038770836,
,0.25,2,11.450000000000001,12.15,0.35,0.1,11.8,5,,,,,0,0,0,11,,,,,,,,,,,,,,,,num_2,0,2.7385422000661492,115.49115399993025,None,,,6,21,female,2023_Aug_15_1346,control,2021.2.3,60.071497038770836,
,0.1,2,11.600000000000001,12,0.2,0.1,11.8,3,,,,,0,1,1,1,,,,,,,,,,,,,,,,num_2,0,4.967941800132394,120.15786030003801,None,,,6,21,female,2023_Aug_15_1346,control,2021.2.3,60.071497038770836,
,0.4,1,11.35,99999,0.46,0.06,11.35,4,,,,,0,2,2,14,,,,,,,,,,,,,,,,num_2,0,4.8947438998147845,126.79092559986748,None,,,6,21,female,2023_Aug_15_1346,control,2021.2.3,60.071497038770836,
,0.25,2,11.04,11.66,0.31,0.06,11.35,4,,,,,0,3,3,9,,,,,,,,,,,,,,,,num_1,0,41.284178799949586,133.85776669997722,None,,,6,21,female,2023_Aug_15_1346,control,2021.2.3,60.071497038770836,
,0.4,2,11.3,12.3,0.5,0.1,11.8,3,,,,,0,4,4,13,,,,,,,,,,,,,,,,num_2,0,4.56735339993611,176.57448119996116,None,,,6,21,female,2023_Aug_15_1346,control,2021.2.3,60.071497038770836,
,0.4,1,11.8,99999,0.5,0.1,11.8,3,,,,,0,5,5,12,,,,,,,,,,,,,,,,num_1,0,12.417986100073904,182.3077719998546,None,,,6,21,female,2023_Aug_15_1346,control,2021.2.3,60.071497038770836,
,0.4,2,10.889999999999999,11.81,0.46,0.06,11.35,4,,,,,0,6,6,15,,,,,,,,,,,,,,,,num_2,0,1.000789200188592,196.1410282999277,None,,,6,21,female,2023_Aug_15_1346,control,2021.2.3,60.071497038770836,
,0.1,1,11.35,99999,0.16,0.06,11.35,4,,,,,0,7,7,2,,,,,,,,,,,,,,,,num_1,0,1.2455337999854237,198.8243115998339,None,,,6,21,female,2023_Aug_15_1346,control,2021.2.3,60.071497038770836,
,0.25,1,11.35,99999,0.31,0.06,11.35,4,,,,,0,8,8,8,,,,,,,,,,,,,,,,num_1,0,1.5406304998323321,202.2409726998303,None,,,6,21,female,2023_Aug_15_1346,control,2021.2.3,60.071497038770836,
,0.1,2,11.19,11.51,0.16,0.06,11.35,4,,,,,0,9,9,3,,,,,,,,,,,,,,,,num_2,0,0.6343102999962866,205.7075253999792,None,,,6,21,female,2023_Aug_15_1346,control,2021.2.3,60.071497038770836,
,0.25,2,11.450000000000001,12.15,0.35,0.1,11.8,3,,,,,0,10,10,7,,,,,,,,,,,,,,,,num_2,0,0.7621704000048339,208.50766979996115,None,,,6,21,female,2023_Aug_15_1346,control,2021.2.3,60.071497038770836,
,0.1,2,11.600000000000001,12,0.2,0.1,11.8,5,,,,,0,11,11,5,,,,,,,,,,,,,,,,num_2,0,1.1229054001159966,210.6910063000396,None,,,6,21,female,2023_Aug_15_1346,control,2021.2.3,60.071497038770836,
,0.25,1,11.8,99999,0.35,0.1,11.8,5,,,,,0,12,12,10,,,,,,,,,,,,,,,,num_1,0,1.1188212998677045,213.99072789982893,None,,,6,21,female,2023_Aug_15_1346,control,2021.2.3,60.071497038770836,
,0.4,2,11.3,12.3,0.5,0.1,11.8,5,,,,,0,13,13,17,,,,,,,,,,,,,,,,num_2,0,1.2990075999405235,216.29101979988627,None,,,6,21,female,2023_Aug_15_1346,control,2021.2.3,60.071497038770836,
,0.4,1,11.8,99999,0.5,0.1,11.8,5,,,,,0,14,14,16,,,,,,,,,,,,,,,,num_1,0,0.7836201000027359,218.75779649987817,None,,,6,21,female,2023_Aug_15_1346,control,2021.2.3,60.071497038770836,
,0.1,1,11.8,99999,0.2,0.1,11.8,3,,,,,0,15,15,0,,,,,,,,,,,,,,,,num_1,0,0.6658381000161171,221.707722999854,None,,,6,21,female,2023_Aug_15_1346,control,2021.2.3,60.071497038770836,
,0.1,1,11.8,99999,0.2,0.1,11.8,5,,,,,0,16,16,4,,,,,,,,,,,,,,,,num_1,0,0.4346753000281751,224.29099450004287,None,,,6,21,female,2023_Aug_15_1346,control,2021.2.3,60.071497038770836,
,0.25,1,11.8,99999,0.35,0.1,11.8,3,,,,,0,17,17,6,,,,,,,,,,,,,,,,num_1,0,0.5369406000245363,226.14076759992167,None,,,6,21,female,2023_Aug_15_1346,control,2021.2.3,60.071497038770836,
,0.4,1,11.8,99999,0.5,0.1,11.8,3,,,,,1,0,18,12,,,,,,,,,,,,,,,,num_1,0,0.6079572001472116,228.3577864000108,None,,,6,21,female,2023_Aug_15_1346,control,2021.2.3,60.071497038770836,
,0.25,2,11.450000000000001,12.15,0.35,0.1,11.8,5,,,,,1,1,19,11,,,,,,,,,,,,,,,,num_2,0,0.5745553001761436,230.39096919982694,None,,,6,21,female,2023_Aug_15_1346,control,2021.2.3,60.071497038770836,
,0.1,2,11.19,11.51,0.16,0.06,11.35,4,,,,,1,2,20,3,,,,,,,,,,,,,,,,num_2,0,0.6186452999245375,232.89102520002052,None,,,6,21,female,2023_Aug_15_1346,control,2021.2.3,60.071497038770836,
,0.1,1,11.8,99999,0.2,0.1,11.8,5,,,,,1,3,21,4,,,,,,,,,,,,,,,,num_1,0,0.38886379986070096,235.44074400002137,None,,,6,21,female,2023_Aug_15_1346,control,2021.2.3,60.071497038770836,
,0.4,2,11.3,12.3,0.5,0.1,11.8,3,,,,,1,4,22,13,,,,,,,,,,,,,,,,num_2,0,0.5099935999605805,238.00775670004077,None,,,6,21,female,2023_Aug_15_1346,control,2021.2.3,60.071497038770836,
,0.25,1,11.35,99999,0.31,0.06,11.35,4,,,,,1,5,23,8,,,,,,,,,,,,,,,,num_1,0,0.41860620002262294,240.69095980003476,None,,,6,21,female,2023_Aug_15_1346,control,2021.2.3,60.071497038770836,
,0.25,1,11.8,99999,0.35,0.1,11.8,3,,,,,1,6,24,6,,,,,,,,,,,,,,,,num_1,0,0.5627130998764187,242.29099490004592,None,,,6,21,female,2023_Aug_15_1346,control,2021.2.3,60.071497038770836,
,0.25,2,11.04,11.66,0.31,0.06,11.35,4,,,,,1,7,25,9,,,,,,,,,,,,,,,,num_2,0,0.6433734998572618,244.27440829994157,None,,,6,21,female,2023_Aug_15_1346,control,2021.2.3,60.071497038770836,
,0.1,1,11.8,99999,0.2,0.1,11.8,3,,,,,1,8,26,0,,,,,,,,,,,,,,,,num_1,0,0.5349453000817448,246.59090049983934,None,,,6,21,female,2023_Aug_15_1346,control,2021.2.3,60.071497038770836,
,0.1,2,11.600000000000001,12,0.2,0.1,11.8,5,,,,,1,9,27,5,,,,,,,,,,,,,,,,num_2,0,0.44201280013658106,249.3077587999869,None,,,6,21,female,2023_Aug_15_1346,control,2021.2.3,60.071497038770836,
,0.4,2,11.3,12.3,0.5,0.1,11.8,5,,,,,1,10,28,17,,,,,,,,,,,,,,,,num_2,0,0.4314460000023246,251.1743844000157,None,,,6,21,female,2023_Aug_15_1346,control,2021.2.3,60.071497038770836,
,0.25,1,11.8,99999,0.35,0.1,11.8,5,,,,,1,11,29,10,,,,,,,,,,,,,,,,num_1,0,0.31939199985936284,252.7743328998331,None,,,6,21,female,2023_Aug_15_1346,control,2021.2.3,60.071497038770836,
,0.1,1,11.35,99999,0.16,0.06,11.35,4,,,,,1,12,30,2,,,,,,,,,,,,,,,,num_1,0,0.28712530015036464,254.77441970002837,None,,,6,21,female,2023_Aug_15_1346,control,2021.2.3,60.071497038770836,
,0.25,2,11.450000000000001,12.15,0.35,0.1,11.8,3,,,,,1,13,31,7,,,,,,,,,,,,,,,,num_2,0,0.39048039983026683,256.99102750001475,None,,,6,21,female,2023_Aug_15_1346,control,2021.2.3,60.071497038770836,
,0.4,1,11.8,99999,0.5,0.1,11.8,5,,,,,1,14,32,16,,,,,,,,,,,,,,,,num_1,0,0.2499469998292625,259.3076948998496,None,,,6,21,female,2023_Aug_15_1346,control,2021.2.3,60.071497038770836,
,0.1,2,11.600000000000001,12,0.2,0.1,11.8,3,,,,,1,15,33,1,,,,,,,,,,,,,,,,num_1,0,0.8413831000216305,261.7243868999649,None,,,6,21,female,2023_Aug_15_1346,control,2021.2.3,60.071497038770836,
,0.4,2,10.889999999999999,11.81,0.46,0.06,11.35,4,,,,,1,16,34,15,,,,,,,,,,,,,,,,num_2,0,0.4725347999483347,263.74116700002924,None,,,6,21,female,2023_Aug_15_1346,control,2021.2.3,60.071497038770836,
,0.4,1,11.35,99999,0.46,0.06,11.35,4,,,,,1,17,35,14,,,,,,,,,,,,,,,,num_1,0,0.3028035999741405,266.3909181000199,None,,,6,21,female,2023_Aug_15_1346,control,2021.2.3,60.071497038770836,
,0.1,1,11.8,99999,0.2,0.1,11.8,3,,,,,2,0,36,0,,,,,,,,,,,,,,,,num_1,0,0.45185870002023876,267.8744159999769,None,,,6,21,female,2023_Aug_15_1346,control,2021.2.3,60.071497038770836,
,0.25,2,11.450000000000001,12.15,0.35,0.1,11.8,3,,,,,2,1,37,7,,,,,,,,,,,,,,,,num_2,0,0.4659035000950098,269.50753009994514,None,,,6,21,female,2023_Aug_15_1346,control,2021.2.3,60.071497038770836,
,0.4,2,11.3,12.3,0.5,0.1,11.8,3,,,,,2,2,38,13,,,,,,,,,,,,,,,,num_2,0,0.456963500007987,272.1410318999551,None,,,6,21,female,2023_Aug_15_1346,control,2021.2.3,60.071497038770836,
,0.1,2,11.19,11.51,0.16,0.06,11.35,4,,,,,2,3,39,3,,,,,,,,,,,,,,,,num_2,0,0.3455513999797404,274.5241172998212,None,,,6,21,female,2023_Aug_15_1346,control,2021.2.3,60.071497038770836,
,0.25,1,11.8,99999,0.35,0.1,11.8,3,,,,,2,4,40,6,,,,,,,,,,,,,,,,num_1,0,0.7601890000514686,276.5410879999399,None,,,6,21,female,2023_Aug_15_1346,control,2021.2.3,60.071497038770836,
,0.1,1,11.8,99999,0.2,0.1,11.8,5,,,,,2,5,41,4,,,,,,,,,,,,,,,,num_1,0,0.5315064999740571,279.4742848998867,None,,,6,21,female,2023_Aug_15_1346,control,2021.2.3,60.071497038770836,
,0.4,1,11.8,99999,0.5,0.1,11.8,3,,,,,2,6,42,12,,,,,,,,,,,,,,,,num_1,0,0.5975913999136537,281.42429469991475,None,,,6,21,female,2023_Aug_15_1346,control,2021.2.3,60.071497038770836,
,0.25,2,11.450000000000001,12.15,0.35,0.1,11.8,5,,,,,2,7,43,11,,,,,,,,,,,,,,,,num_2,0,0.7690187999978662,283.94067419995554,None,,,6,21,female,2023_Aug_15_1346,control,2021.2.3,60.071497038770836,
,0.4,1,11.35,99999,0.46,0.06,11.35,4,,,,,2,8,44,14,,,,,,,,,,,,,,,,num_1,0,0.43423149990849197,285.89103109994903,None,,,6,21,female,2023_Aug_15_1346,control,2021.2.3,60.071497038770836,
,0.4,2,11.3,12.3,0.5,0.1,11.8,5,,,,,2,9,45,17,,,,,,,,,,,,,,,,num_2,0,0.7087139999493957,288.2409876999445,None,,,6,21,female,2023_Aug_15_1346,control,2021.2.3,60.071497038770836,
,0.25,2,11.04,11.66,0.31,0.06,11.35,4,,,,,2,10,46,9,,,,,,,,,,,,,,,,num_2,0,0.4976669999305159,291.12413849984296,None,,,6,21,female,2023_Aug_15_1346,control,2021.2.3,60.071497038770836,
,0.1,1,11.35,99999,0.16,0.06,11.35,4,,,,,2,11,47,2,,,,,,,,,,,,,,,,num_1,0,0.7406140000093728,293.0409516999498,None,,,6,21,female,2023_Aug_15_1346,control,2021.2.3,60.071497038770836,
,0.1,2,11.600000000000001,12,0.2,0.1,11.8,5,,,,,2,12,48,5,,,,,,,,,,,,,,,,num_2,0,0.8483641999773681,295.9574865999166,None,,,6,21,female,2023_Aug_15_1346,control,2021.2.3,60.071497038770836,
,0.1,2,11.600000000000001,12,0.2,0.1,11.8,3,,,,,2,13,49,1,,,,,,,,,,,,,,,,num_2,0,0.6955579000059515,298.9742164998315,None,,,6,21,female,2023_Aug_15_1346,control,2021.2.3,60.071497038770836,
,0.25,1,11.35,99999,0.31,0.06,11.35,4,,,,,2,14,50,8,,,,,,,,,,,,,,,,num_1,0,0.8982633999548852,301.0910906000063,None,,,6,21,female,2023_Aug_15_1346,control,2021.2.3,60.071497038770836,
,0.25,1,11.8,99999,0.35,0.1,11.8,5,,,,,2,15,51,10,,,,,,,,,,,,,,,,num_1,0,4.423466099891812,304.15772149991244,None,,,6,21,female,2023_Aug_15_1346,control,2021.2.3,60.071497038770836,
,0.4,1,11.8,99999,0.5,0.1,11.8,5,,,,,2,16,52,16,,,,,,,,,,,,,,,,num_2,0,3.704175699967891,309.75752149987966,None,,,6,21,female,2023_Aug_15_1346,control,2021.2.3,60.071497038770836,
,0.4,2,10.889999999999999,11.81,0.46,0.06,11.35,4,,,,,2,17,53,15,,,,,,,,,,,,,,,,num_2,0,0.7089232001453638,314.64082149998285,None,,,6,21,female,2023_Aug_15_1346,control,2021.2.3,60.071497038770836,
,0.25,2,11.450000000000001,12.15,0.35,0.1,11.8,3,,,,,3,0,54,7,,,,,,,,,,,,,,,,num_2,0,0.465307499980554,317.5242748998571,None,,,6,21,female,2023_Aug_15_1346,control,2021.2.3,60.071497038770836,
,0.4,1,11.8,99999,0.5,0.1,11.8,3,,,,,3,1,55,12,,,,,,,,,,,,,,,,num_1,0,0.38411360001191497,319.15770830004476,None,,,6,21,female,2023_Aug_15_1346,control,2021.2.3,60.071497038770836,
,0.4,1,11.35,99999,0.46,0.06,11.35,4,,,,,3,2,56,14,,,,,,,,,,,,,,,,num_2,0,0.3933929998893291,321.7243899998721,None,,,6,21,female,2023_Aug_15_1346,control,2021.2.3,60.071497038770836,
,0.25,1,11.8,99999,0.35,0.1,11.8,5,,,,,3,3,57,10,,,,,,,,,,,,,,,,num_1,0,0.4820115000475198,324.29101779987104,None,,,6,21,female,2023_Aug_15_1346,control,2021.2.3,60.071497038770836,
,0.1,2,11.19,11.51,0.16,0.06,11.35,4,,,,,3,4,58,3,,,,,,,,,,,,,,,,num_2,0,0.4608718999661505,326.44082010001875,None,,,6,21,female,2023_Aug_15_1346,control,2021.2.3,60.071497038770836,
,0.1,2,11.600000000000001,12,0.2,0.1,11.8,5,,,,,3,5,59,5,,,,,,,,,,,,,,,,num_2,0,0.46505069988779724,328.3243680000305,None,,,6,21,female,2023_Aug_15_1346,control,2021.2.3,60.071497038770836,
,0.4,1,11.8,99999,0.5,0.1,11.8,5,,,,,3,6,60,16,,,,,,,,,,,,,,,,num_1,0,0.3315491999965161,330.4575139998924,None,,,6,21,female,2023_Aug_15_1346,control,2021.2.3,60.071497038770836,
,0.25,2,11.04,11.66,0.31,0.06,11.35,4,,,,,3,7,61,9,,,,,,,,,,,,,,,,num_2,0,0.5238783999811858,332.45769029995427,None,,,6,21,female,2023_Aug_15_1346,control,2021.2.3,60.071497038770836,
,0.1,1,11.35,99999,0.16,0.06,11.35,4,,,,,3,8,62,2,,,,,,,,,,,,,,,,num_1,0,0.5103728000540286,334.40744540002197,None,,,6,21,female,2023_Aug_15_1346,control,2021.2.3,60.071497038770836,
,0.1,2,11.600000000000001,12,0.2,0.1,11.8,3,,,,,3,9,63,1,,,,,,,,,,,,,,,,num_2,0,0.492809500079602,336.8409463998396,None,,,6,21,female,2023_Aug_15_1346,control,2021.2.3,60.071497038770836,
,0.1,1,11.8,99999,0.2,0.1,11.8,5,,,,,3,10,64,4,,,,,,,,,,,,,,,,num_1,0,0.43192119989544153,338.7576512999367,None,,,6,21,female,2023_Aug_15_1346,control,2021.2.3,60.071497038770836,
,0.25,1,11.35,99999,0.31,0.06,11.35,4,,,,,3,11,65,8,,,,,,,,,,,,,,,,num_1,0,0.5601590999867767,340.35750989988446,None,,,6,21,female,2023_Aug_15_1346,control,2021.2.3,60.071497038770836,
,0.4,2,11.3,12.3,0.5,0.1,11.8,5,,,,,3,12,66,17,,,,,,,,,,,,,,,,num_2,0,0.33282770006917417,342.84082990000024,None,,,6,21,female,2023_Aug_15_1346,control,2021.2.3,60.071497038770836,
,0.1,1,11.8,99999,0.2,0.1,11.8,3,,,,,3,13,67,0,,,,,,,,,,,,,,,,num_1,0,0.5307531000580639,345.0910671998281,None,,,6,21,female,2023_Aug_15_1346,control,2021.2.3,60.071497038770836,
,0.4,2,10.889999999999999,11.81,0.46,0.06,11.35,4,,,,,3,14,68,15,,,,,,,,,,,,,,,,num_2,0,0.4548983999993652,347.7908252000343,None,,,6,21,female,2023_Aug_15_1346,control,2021.2.3,60.071497038770836,
,0.25,1,11.8,99999,0.35,0.1,11.8,3,,,,,3,15,69,6,,,,,,,,,,,,,,,,num_1,0,0.49759739986620843,349.92424579989165,None,,,6,21,female,2023_Aug_15_1346,control,2021.2.3,60.071497038770836,
,0.4,2,11.3,12.3,0.5,0.1,11.8,3,,,,,3,16,70,13,,,,,,,,,,,,,,,,num_2,0,0.5807564000133425,351.84091959986836,None,,,6,21,female,2023_Aug_15_1346,control,2021.2.3,60.071497038770836,
,0.25,2,11.450000000000001,12.15,0.35,0.1,11.8,5,,,,,3,17,71,11,,,,,,,,,,,,,,,,num_2,0,0.5267006000503898,353.59099679999053,None,,,6,21,female,2023_Aug_15_1346,control,2021.2.3,60.071497038770836,
,0.4,2,11.3,12.3,0.5,0.1,11.8,3,,,,,4,0,72,13,,,,,,,,,,,,,,,,num_2,0,0.3427053999621421,355.79088939982466,None,,,6,21,female,2023_Aug_15_1346,control,2021.2.3,60.071497038770836,
,0.4,2,10.889999999999999,11.81,0.46,0.06,11.35,4,,,,,4,1,73,15,,,,,,,,,,,,,,,,num_2,0,0.47587880003266037,358.057551600039,None,,,6,21,female,2023_Aug_15_1346,control,2021.2.3,60.071497038770836,
,0.1,1,11.8,99999,0.2,0.1,11.8,5,,,,,4,2,74,4,,,,,,,,,,,,,,,,num_1,0,0.47580279991962016,360.45766730001196,None,,,6,21,female,2023_Aug_15_1346,control,2021.2.3,60.071497038770836,
,0.4,1,11.8,99999,0.5,0.1,11.8,3,,,,,4,3,75,12,,,,,,,,,,,,,,,,num_1,0,0.5538625000044703,362.1076908998657,None,,,6,21,female,2023_Aug_15_1346,control,2021.2.3,60.071497038770836,
,0.25,1,11.35,99999,0.31,0.06,11.35,4,,,,,4,4,76,8,,,,,,,,,,,,,,,,num_1,0,0.44273320003412664,364.090923700016,None,,,6,21,female,2023_Aug_15_1346,control,2021.2.3,60.071497038770836,
,0.25,1,11.8,99999,0.35,0.1,11.8,5,,,,,4,5,77,10,,,,,,,,,,,,,,,,num_1,0,0.44176310021430254,365.70748810004443,None,,,6,21,female,2023_Aug_15_1346,control,2021.2.3,60.071497038770836,
,0.25,2,11.450000000000001,12.15,0.35,0.1,11.8,3,,,,,4,6,78,7,,,,,,,,,,,,,,,,num_2,0,0.6973501001484692,367.3242654998321,None,,,6,21,female,2023_Aug_15_1346,control,2021.2.3,60.071497038770836,
,0.1,2,11.600000000000001,12,0.2,0.1,11.8,3,,,,,4,7,79,1,,,,,,,,,,,,,,,,num_1,0,0.6866274999920279,369.19075639988296,None,,,6,21,female,2023_Aug_15_1346,control,2021.2.3,60.071497038770836,
,0.25,1,11.8,99999,0.35,0.1,11.8,3,,,,,4,8,80,6,,,,,,,,,,,,,,,,num_1,0,0.3421159000135958,371.8075752998702,None,,,6,21,female,2023_Aug_15_1346,control,2021.2.3,60.071497038770836,
,0.4,1,11.35,99999,0.46,0.06,11.35,4,,,,,4,9,81,14,,,,,,,,,,,,,,,,num_1,0,0.4976574999745935,374.32420199993066,None,,,6,21,female,2023_Aug_15_1346,control,2021.2.3,60.071497038770836,
,0.1,1,11.35,99999,0.16,0.06,11.35,4,,,,,4,10,82,2,,,,,,,,,,,,,,,,num_1,0,0.2726760001387447,376.74095759983175,None,,,6,21,female,2023_Aug_15_1346,control,2021.2.3,60.071497038770836,
,0.1,2,11.600000000000001,12,0.2,0.1,11.8,5,,,,,4,11,83,5,,,,,,,,,,,,,,,,num_2,0,0.5666251999791712,378.1908910998609,None,,,6,21,female,2023_Aug_15_1346,control,2021.2.3,60.071497038770836,
,0.25,2,11.450000000000001,12.15,0.35,0.1,11.8,5,,,,,4,12,84,11,,,,,,,,,,,,,,,,num_2,0,0.5532523000147194,380.9242854998447,None,,,6,21,female,2023_Aug_15_1346,control,2021.2.3,60.071497038770836,
,0.1,2,11.19,11.51,0.16,0.06,11.35,4,,,,,4,13,85,3,,,,,,,,,,,,,,,,num_2,0,0.6599928999785334,382.65763689996675,None,,,6,21,female,2023_Aug_15_1346,control,2021.2.3,60.071497038770836,
,0.25,2,11.04,11.66,0.31,0.06,11.35,4,,,,,4,14,86,9,,,,,,,,,,,,,,,,num_2,0,0.5087170000188053,385.2409915998578,None,,,6,21,female,2023_Aug_15_1346,control,2021.2.3,60.071497038770836,
,0.1,1,11.8,99999,0.2,0.1,11.8,3,,,,,4,15,87,0,,,,,,,,,,,,,,,,num_1,0,0.3991839000955224,387.17434669984505,None,,,6,21,female,2023_Aug_15_1346,control,2021.2.3,60.071497038770836,
,0.4,2,11.3,12.3,0.5,0.1,11.8,5,,,,,4,16,88,17,,,,,,,,,,,,,,,,num_2,0,0.4648682000115514,388.7407783998642,None,,,6,21,female,2023_Aug_15_1346,control,2021.2.3,60.071497038770836,
,0.4,1,11.8,99999,0.5,0.1,11.8,5,,,,,4,17,89,16,,,,,,,,,,,,,,,,num_1,0,0.5750538997817785,390.37414729990996,None,,,6,21,female,2023_Aug_15_1346,control,2021.2.3,60.071497038770836,
,0.25,2,11.450000000000001,12.15,0.35,0.1,11.8,5,,,,,5,0,90,11,,,,,,,,,,,,,,,,num_2,0,0.6512684000190347,392.8742439998314,None,,,6,21,female,2023_Aug_15_1346,control,2021.2.3,60.071497038770836,
,0.4,2,11.3,12.3,0.5,0.1,11.8,3,,,,,5,1,91,13,,,,,,,,,,,,,,,,num_2,0,0.5109537998214364,395.1908187000081,None,,,6,21,female,2023_Aug_15_1346,control,2021.2.3,60.071497038770836,
,0.25,1,11.8,99999,0.35,0.1,11.8,3,,,,,5,2,92,6,,,,,,,,,,,,,,,,num_1,0,0.4555547998752445,397.37409139983356,None,,,6,21,female,2023_Aug_15_1346,control,2021.2.3,60.071497038770836,
,0.4,2,10.889999999999999,11.81,0.46,0.06,11.35,4,,,,,5,3,93,15,,,,,,,,,,,,,,,,num_2,0,0.5103917999658734,400.0074153000023,None,,,6,21,female,2023_Aug_15_1346,control,2021.2.3,60.071497038770836,
,0.1,1,11.8,99999,0.2,0.1,11.8,5,,,,,5,4,94,4,,,,,,,,,,,,,,,,num_1,0,0.4511804000940174,402.6907849998679,None,,,6,21,female,2023_Aug_15_1346,control,2021.2.3,60.071497038770836,
,0.4,1,11.35,99999,0.46,0.06,11.35,4,,,,,5,5,95,14,,,,,,,,,,,,,,,,num_1,0,1.041965200100094,404.3076625999529,None,,,6,21,female,2023_Aug_15_1346,control,2021.2.3,60.071497038770836,
,0.1,2,11.19,11.51,0.16,0.06,11.35,4,,,,,5,6,96,3,,,,,,,,,,,,,,,,num_2,0,0.4689841999206692,407.02432009996846,None,,,6,21,female,2023_Aug_15_1346,control,2021.2.3,60.071497038770836,
,0.1,2,11.600000000000001,12,0.2,0.1,11.8,3,,,,,5,7,97,1,,,,,,,,,,,,,,,,num_2,0,0.4255228000693023,408.92420879984275,None,,,6,21,female,2023_Aug_15_1346,control,2021.2.3,60.071497038770836,
,0.25,1,11.35,99999,0.31,0.06,11.35,4,,,,,5,8,98,8,,,,,,,,,,,,,,,,num_1,0,0.41734359995462,411.5242381999269,None,,,6,21,female,2023_Aug_15_1346,control,2021.2.3,60.071497038770836,
,0.4,2,11.3,12.3,0.5,0.1,11.8,5,,,,,5,9,99,17,,,,,,,,,,,,,,,,num_1,0,0.3760313999373466,413.35752389999107,None,,,6,21,female,2023_Aug_15_1346,control,2021.2.3,60.071497038770836,
,0.4,1,11.8,99999,0.5,0.1,11.8,5,,,,,5,10,100,16,,,,,,,,,,,,,,,,num_1,0,0.5178094999864697,415.40763869998045,None,,,6,21,female,2023_Aug_15_1346,control,2021.2.3,60.071497038770836,
,0.25,1,11.8,99999,0.35,0.1,11.8,5,,,,,5,11,101,10,,,,,,,,,,,,,,,,num_1,0,0.44685709988698363,417.5907848998904,None,,,6,21,female,2023_Aug_15_1346,control,2021.2.3,60.071497038770836,
,0.1,1,11.8,99999,0.2,0.1,11.8,3,,,,,5,12,102,0,,,,,,,,,,,,,,,,num_1,0,0.5061594999860972,419.70743139996193,None,,,6,21,female,2023_Aug_15_1346,control,2021.2.3,60.071497038770836,
,0.25,2,11.04,11.66,0.31,0.06,11.35,4,,,,,5,13,103,9,,,,,,,,,,,,,,,,num_2,0,0.5365606001578271,422.14091049996205,None,,,6,21,female,2023_Aug_15_1346,control,2021.2.3,60.071497038770836,
,0.25,2,11.450000000000001,12.15,0.35,0.1,11.8,3,,,,,5,14,104,7,,,,,,,,,,,,,,,,num_2,0,0.5223985000047833,424.10743459989317,None,,,6,21,female,2023_Aug_15_1346,control,2021.2.3,60.071497038770836,
,0.1,2,11.600000000000001,12,0.2,0.1,11.8,5,,,,,5,15,105,5,,,,,,,,,,,,,,,,num_2,0,0.8761205000337213,426.0575671000406,None,,,6,21,female,2023_Aug_15_1346,control,2021.2.3,60.071497038770836,
,0.1,1,11.35,99999,0.16,0.06,11.35,4,,,,,5,16,106,2,,,,,,,,,,,,,,,,num_1,0,0.4982939998153597,429.10751460003667,None,,,6,21,female,2023_Aug_15_1346,control,2021.2.3,60.071497038770836,
,0.4,1,11.8,99999,0.5,0.1,11.8,3,,,,,5,17,107,12,,,,,,,,,,,,,,,,num_1,0,0.6073459000326693,430.7741868000012,None,,,6,21,female,2023_Aug_15_1346,control,2021.2.3,60.071497038770836,
,,,,,,,,,,,,,,,,,,,,,,,,,,,,,,,,,,,,,431.40814840001985,None,,,,,,,,
